status,text,stim,trials.thisRepN,trials.thisTrialN,trials.thisN,trials.thisIndex,key_resp_3.keys,key_resp_3.rt,key_resp_2.keys,key_resp_2.rt,key_resp_4.keys,key_resp_4.rt,session,participant,frameRate,expName,date,condition,
,,,,,,,space,2.56761789322,,,,,004,bco,59.9538300345,prodShadow,2015_Jul_26_1345,midd,
target,doko,stim/doko.wav,0,0,0,16,,,space,1.7840628624,,,004,bco,59.9538300345,prodShadow,2015_Jul_26_1345,midd,
distractor,eda,stim/eda.wav,0,1,1,18,,,space,1.25068902969,,,004,bco,59.9538300345,prodShadow,2015_Jul_26_1345,midd,
distractor,apa,stim/apa.wav,0,2,2,1,,,space,1.26740884781,,,004,bco,59.9538300345,prodShadow,2015_Jul_26_1345,midd,
pname,polo,stim/polo.wav,0,3,3,40,,,space,1.11737203598,,,004,bco,59.9538300345,prodShadow,2015_Jul_26_1345,midd,
target,diki,stim/diki.wav,0,4,4,14,,,space,1.21748399734,,,004,bco,59.9538300345,prodShadow,2015_Jul_26_1345,midd,
pname,coco,stim/coco.wav,0,5,5,10,,,space,1.25129818916,,,004,bco,59.9538300345,prodShadow,2015_Jul_26_1345,midd,
target,tuku,stim/tuku.wav,0,6,6,48,,,space,1.18394708633,,,004,bco,59.9538300345,prodShadow,2015_Jul_26_1345,midd,
target,puku,stim/puku.wav,0,7,7,41,,,space,1.0839869976,,,004,bco,59.9538300345,prodShadow,2015_Jul_26_1345,midd,
pname,bola,stim/bola.wav,0,8,8,7,,,space,1.21788716316,,,004,bco,59.9538300345,prodShadow,2015_Jul_26_1345,midd,
target,teke,stim/teke.wav,0,9,9,44,,,space,1.20092701912,,,004,bco,59.9538300345,prodShadow,2015_Jul_26_1345,midd,
target,paka,stim/paka.wav,0,10,10,35,,,space,1.16745185852,,,004,bco,59.9538300345,prodShadow,2015_Jul_26_1345,midd,
target,daka,stim/daka.wav,0,11,11,12,,,space,1.25070810318,,,004,bco,59.9538300345,prodShadow,2015_Jul_26_1345,midd,
target,kiki,stim/kiki.wav,0,12,12,30,,,space,1.23401904106,,,004,bco,59.9538300345,prodShadow,2015_Jul_26_1345,midd,
distractor,oka,stim/oka.wav,0,13,13,34,,,space,1.30080389977,,,004,bco,59.9538300345,prodShadow,2015_Jul_26_1345,midd,
distractor,oba,stim/oba.wav,0,14,14,33,,,space,1.11731219292,,,004,bco,59.9538300345,prodShadow,2015_Jul_26_1345,midd,
pname,gota,stim/gota.wav,0,15,15,25,,,space,1.36723399162,,,004,bco,59.9538300345,prodShadow,2015_Jul_26_1345,midd,
target,duku,stim/duku.wav,0,16,16,17,,,space,1.26769709587,,,004,bco,59.9538300345,prodShadow,2015_Jul_26_1345,midd,
pname,taco,stim/taco.wav,0,17,17,42,,,space,1.18388414383,,,004,bco,59.9538300345,prodShadow,2015_Jul_26_1345,midd,
pname,dado,stim/dado.wav,0,18,18,11,,,space,1.26739096642,,,004,bco,59.9538300345,prodShadow,2015_Jul_26_1345,midd,
target,kaka,stim/kaka.wav,0,19,19,28,,,space,1.18419408798,,,004,bco,59.9538300345,prodShadow,2015_Jul_26_1345,midd,
target,geke,stim/geke.wav,0,20,20,22,,,space,1.20095396042,,,004,bco,59.9538300345,prodShadow,2015_Jul_26_1345,midd,
target,toko,stim/toko.wav,0,21,21,47,,,space,1.21707105637,,,004,bco,59.9538300345,prodShadow,2015_Jul_26_1345,midd,
target,deke,stim/deke.wav,0,22,22,13,,,space,1.417334795,,,004,bco,59.9538300345,prodShadow,2015_Jul_26_1345,midd,
distractor,epa,stim/epa.wav,0,23,23,19,,,space,1.13424897194,,,004,bco,59.9538300345,prodShadow,2015_Jul_26_1345,midd,
distractor,ada,stim/ada.wav,0,24,24,0,,,space,1.23410582542,,,004,bco,59.9538300345,prodShadow,2015_Jul_26_1345,midd,
pname,topo,stim/topo.wav,0,25,25,46,,,space,1.15072894096,,,004,bco,59.9538300345,prodShadow,2015_Jul_26_1345,midd,
target,poko,stim/poko.wav,0,26,26,39,,,space,1.10067415237,,,004,bco,59.9538300345,prodShadow,2015_Jul_26_1345,midd,
distractor,ita,stim/ita.wav,0,27,27,27,,,space,1.33407902718,,,004,bco,59.9538300345,prodShadow,2015_Jul_26_1345,midd,
target,buku,stim/buku.wav,0,28,28,8,,,space,1.38429784775,,,004,bco,59.9538300345,prodShadow,2015_Jul_26_1345,midd,
pname,bala,stim/bala.wav,0,29,29,3,,,space,1.41744399071,,,004,bco,59.9538300345,prodShadow,2015_Jul_26_1345,midd,
target,baka,stim/baka.wav,0,30,30,2,,,space,1.28444600105,,,004,bco,59.9538300345,prodShadow,2015_Jul_26_1345,midd,
pname,gato,stim/gato.wav,0,31,31,21,,,space,1.6338019371,,,004,bco,59.9538300345,prodShadow,2015_Jul_26_1345,midd,
pname,palo,stim/palo.wav,0,32,32,36,,,space,1.30084395409,,,004,bco,59.9538300345,prodShadow,2015_Jul_26_1345,midd,
target,gaka,stim/gaka.wav,0,33,33,20,,,space,1.41760277748,,,004,bco,59.9538300345,prodShadow,2015_Jul_26_1345,midd,
target,goko,stim/goko.wav,0,34,34,24,,,space,1.33379507065,,,004,bco,59.9538300345,prodShadow,2015_Jul_26_1345,midd,
target,giki,stim/giki.wav,0,35,35,23,,,space,1.1841199398,,,004,bco,59.9538300345,prodShadow,2015_Jul_26_1345,midd,
target,taka,stim/taka.wav,0,36,36,43,,,space,1.26746988297,,,004,bco,59.9538300345,prodShadow,2015_Jul_26_1345,midd,
target,beke,stim/beke.wav,0,37,37,4,,,space,1.38407802582,,,004,bco,59.9538300345,prodShadow,2015_Jul_26_1345,midd,
target,tiki,stim/tiki.wav,0,38,38,45,,,space,1.18371391296,,,004,bco,59.9538300345,prodShadow,2015_Jul_26_1345,midd,
distractor,uta,stim/uta.wav,0,39,39,49,,,space,1.20061182976,,,004,bco,59.9538300345,prodShadow,2015_Jul_26_1345,midd,
target,guku,stim/guku.wav,0,40,40,26,,,space,1.50069093704,,,004,bco,59.9538300345,prodShadow,2015_Jul_26_1345,midd,
pname,caca,stim/caca.wav,0,41,41,9,,,space,1.23415613174,,,004,bco,59.9538300345,prodShadow,2015_Jul_26_1345,midd,
target,peke,stim/peke.wav,0,42,42,37,,,space,1.25079512596,,,004,bco,59.9538300345,prodShadow,2015_Jul_26_1345,midd,
target,koko,stim/koko.wav,0,43,43,31,,,space,1.25082612038,,,004,bco,59.9538300345,prodShadow,2015_Jul_26_1345,midd,
target,boko,stim/boko.wav,0,44,44,6,,,space,1.48411202431,,,004,bco,59.9538300345,prodShadow,2015_Jul_26_1345,midd,
target,keke,stim/keke.wav,0,45,45,29,,,space,1.31764292717,,,004,bco,59.9538300345,prodShadow,2015_Jul_26_1345,midd,
target,biki,stim/biki.wav,0,46,46,5,,,space,1.36744499207,,,004,bco,59.9538300345,prodShadow,2015_Jul_26_1345,midd,
target,piki,stim/piki.wav,0,47,47,38,,,space,1.10060501099,,,004,bco,59.9538300345,prodShadow,2015_Jul_26_1345,midd,
pname,dodo,stim/dodo.wav,0,48,48,15,,,space,1.11731600761,,,004,bco,59.9538300345,prodShadow,2015_Jul_26_1345,midd,
target,kuku,stim/kuku.wav,0,49,49,32,,,space,1.11746788025,,,004,bco,59.9538300345,prodShadow,2015_Jul_26_1345,midd,
distractor,oba,stim/oba.wav,1,0,50,33,,,space,1.20049214363,,,004,bco,59.9538300345,prodShadow,2015_Jul_26_1345,midd,
pname,dado,stim/dado.wav,1,1,51,11,,,space,1.31745910645,,,004,bco,59.9538300345,prodShadow,2015_Jul_26_1345,midd,
target,beke,stim/beke.wav,1,2,52,4,,,space,1.40089702606,,,004,bco,59.9538300345,prodShadow,2015_Jul_26_1345,midd,
target,koko,stim/koko.wav,1,3,53,31,,,space,1.21747899055,,,004,bco,59.9538300345,prodShadow,2015_Jul_26_1345,midd,
target,guku,stim/guku.wav,1,4,54,26,,,space,1.45078206062,,,004,bco,59.9538300345,prodShadow,2015_Jul_26_1345,midd,
target,goko,stim/goko.wav,1,5,55,24,,,space,1.35074186325,,,004,bco,59.9538300345,prodShadow,2015_Jul_26_1345,midd,
pname,taco,stim/taco.wav,1,6,56,42,,,space,1.25074386597,,,004,bco,59.9538300345,prodShadow,2015_Jul_26_1345,midd,
target,kaka,stim/kaka.wav,1,7,57,28,,,space,1.35063791275,,,004,bco,59.9538300345,prodShadow,2015_Jul_26_1345,midd,
target,baka,stim/baka.wav,1,8,58,2,,,space,1.30059909821,,,004,bco,59.9538300345,prodShadow,2015_Jul_26_1345,midd,
target,kuku,stim/kuku.wav,1,9,59,32,,,space,1.18421983719,,,004,bco,59.9538300345,prodShadow,2015_Jul_26_1345,midd,
target,giki,stim/giki.wav,1,10,60,23,,,space,1.25080800056,,,004,bco,59.9538300345,prodShadow,2015_Jul_26_1345,midd,
distractor,eda,stim/eda.wav,1,11,61,18,,,space,1.21743988991,,,004,bco,59.9538300345,prodShadow,2015_Jul_26_1345,midd,
target,keke,stim/keke.wav,1,12,62,29,,,space,1.20103693008,,,004,bco,59.9538300345,prodShadow,2015_Jul_26_1345,midd,
pname,palo,stim/palo.wav,1,13,63,36,,,space,1.13440585136,,,004,bco,59.9538300345,prodShadow,2015_Jul_26_1345,midd,
pname,caca,stim/caca.wav,1,14,64,9,,,space,1.06735610962,,,004,bco,59.9538300345,prodShadow,2015_Jul_26_1345,midd,
pname,dodo,stim/dodo.wav,1,15,65,15,,,space,1.26677513123,,,004,bco,59.9538300345,prodShadow,2015_Jul_26_1345,midd,
target,doko,stim/doko.wav,1,16,66,16,,,space,1.25075507164,,,004,bco,59.9538300345,prodShadow,2015_Jul_26_1345,midd,
target,daka,stim/daka.wav,1,17,67,12,,,space,1.18441104889,,,004,bco,59.9538300345,prodShadow,2015_Jul_26_1345,midd,
pname,gota,stim/gota.wav,1,18,68,25,,,space,1.33440685272,,,004,bco,59.9538300345,prodShadow,2015_Jul_26_1345,midd,
distractor,ita,stim/ita.wav,1,19,69,27,,,space,1.20119595528,,,004,bco,59.9538300345,prodShadow,2015_Jul_26_1345,midd,
target,toko,stim/toko.wav,1,20,70,47,,,space,1.13398790359,,,004,bco,59.9538300345,prodShadow,2015_Jul_26_1345,midd,
target,buku,stim/buku.wav,1,21,71,8,,,space,1.20088791847,,,004,bco,59.9538300345,prodShadow,2015_Jul_26_1345,midd,
target,deke,stim/deke.wav,1,22,72,13,,,space,1.46754288673,,,004,bco,59.9538300345,prodShadow,2015_Jul_26_1345,midd,
target,tuku,stim/tuku.wav,1,23,73,48,,,space,1.11757016182,,,004,bco,59.9538300345,prodShadow,2015_Jul_26_1345,midd,
target,biki,stim/biki.wav,1,24,74,5,,,space,1.46731185913,,,004,bco,59.9538300345,prodShadow,2015_Jul_26_1345,midd,
pname,bola,stim/bola.wav,1,25,75,7,,,space,1.40051794052,,,004,bco,59.9538300345,prodShadow,2015_Jul_26_1345,midd,
target,peke,stim/peke.wav,1,26,76,37,,,space,1.30066299438,,,004,bco,59.9538300345,prodShadow,2015_Jul_26_1345,midd,
pname,polo,stim/polo.wav,1,27,77,40,,,space,1.23343300819,,,004,bco,59.9538300345,prodShadow,2015_Jul_26_1345,midd,
target,gaka,stim/gaka.wav,1,28,78,20,,,space,1.3676199913,,,004,bco,59.9538300345,prodShadow,2015_Jul_26_1345,midd,
distractor,apa,stim/apa.wav,1,29,79,1,,,space,1.21744513512,,,004,bco,59.9538300345,prodShadow,2015_Jul_26_1345,midd,
distractor,ada,stim/ada.wav,1,30,80,0,,,space,1.3505358696,,,004,bco,59.9538300345,prodShadow,2015_Jul_26_1345,midd,
distractor,epa,stim/epa.wav,1,31,81,19,,,space,1.13420796394,,,004,bco,59.9538300345,prodShadow,2015_Jul_26_1345,midd,
target,tiki,stim/tiki.wav,1,32,82,45,,,space,1.21718287468,,,004,bco,59.9538300345,prodShadow,2015_Jul_26_1345,midd,
distractor,oka,stim/oka.wav,1,33,83,34,,,space,1.45110678673,,,004,bco,59.9538300345,prodShadow,2015_Jul_26_1345,midd,
target,paka,stim/paka.wav,1,34,84,35,,,space,1.16731905937,,,004,bco,59.9538300345,prodShadow,2015_Jul_26_1345,midd,
pname,gato,stim/gato.wav,1,35,85,21,,,space,1.76753401756,,,004,bco,59.9538300345,prodShadow,2015_Jul_26_1345,midd,
target,teke,stim/teke.wav,1,36,86,44,,,space,1.23360896111,,,004,bco,59.9538300345,prodShadow,2015_Jul_26_1345,midd,
pname,coco,stim/coco.wav,1,37,87,10,,,space,1.30146789551,,,004,bco,59.9538300345,prodShadow,2015_Jul_26_1345,midd,
distractor,uta,stim/uta.wav,1,38,88,49,,,space,1.28444695473,,,004,bco,59.9538300345,prodShadow,2015_Jul_26_1345,midd,
target,boko,stim/boko.wav,1,39,89,6,,,space,1.45087194443,,,004,bco,59.9538300345,prodShadow,2015_Jul_26_1345,midd,
target,geke,stim/geke.wav,1,40,90,22,,,space,1.46737504005,,,004,bco,59.9538300345,prodShadow,2015_Jul_26_1345,midd,
target,taka,stim/taka.wav,1,41,91,43,,,space,1.33410596848,,,004,bco,59.9538300345,prodShadow,2015_Jul_26_1345,midd,
target,diki,stim/diki.wav,1,42,92,14,,,space,1.08428692818,,,004,bco,59.9538300345,prodShadow,2015_Jul_26_1345,midd,
pname,bala,stim/bala.wav,1,43,93,3,,,space,1.06774187088,,,004,bco,59.9538300345,prodShadow,2015_Jul_26_1345,midd,
target,kiki,stim/kiki.wav,1,44,94,30,,,space,1.11717510223,,,004,bco,59.9538300345,prodShadow,2015_Jul_26_1345,midd,
target,piki,stim/piki.wav,1,45,95,38,,,space,0.983622074127,,,004,bco,59.9538300345,prodShadow,2015_Jul_26_1345,midd,
target,poko,stim/poko.wav,1,46,96,39,,,space,1.05045008659,,,004,bco,59.9538300345,prodShadow,2015_Jul_26_1345,midd,
target,puku,stim/puku.wav,1,47,97,41,,,space,1.2002761364,,,004,bco,59.9538300345,prodShadow,2015_Jul_26_1345,midd,
target,duku,stim/duku.wav,1,48,98,17,,,space,1.45155882835,,,004,bco,59.9538300345,prodShadow,2015_Jul_26_1345,midd,
pname,topo,stim/topo.wav,1,49,99,46,,,space,1.08433699608,,,004,bco,59.9538300345,prodShadow,2015_Jul_26_1345,midd,
target,diki,stim/diki.wav,2,0,100,14,,,space,1.20090317726,,,004,bco,59.9538300345,prodShadow,2015_Jul_26_1345,midd,
pname,caca,stim/caca.wav,2,1,101,9,,,space,1.19971704483,,,004,bco,59.9538300345,prodShadow,2015_Jul_26_1345,midd,
pname,dado,stim/dado.wav,2,2,102,11,,,space,1.28346991539,,,004,bco,59.9538300345,prodShadow,2015_Jul_26_1345,midd,
target,taka,stim/taka.wav,2,3,103,43,,,space,1.25071907043,,,004,bco,59.9538300345,prodShadow,2015_Jul_26_1345,midd,
target,keke,stim/keke.wav,2,4,104,29,,,space,1.13358402252,,,004,bco,59.9538300345,prodShadow,2015_Jul_26_1345,midd,
target,biki,stim/biki.wav,2,5,105,5,,,space,1.41789793968,,,004,bco,59.9538300345,prodShadow,2015_Jul_26_1345,midd,
target,boko,stim/boko.wav,2,6,106,6,,,space,1.31755304337,,,004,bco,59.9538300345,prodShadow,2015_Jul_26_1345,midd,
target,doko,stim/doko.wav,2,7,107,16,,,space,1.40067887306,,,004,bco,59.9538300345,prodShadow,2015_Jul_26_1345,midd,
distractor,ada,stim/ada.wav,2,8,108,0,,,space,1.25114488602,,,004,bco,59.9538300345,prodShadow,2015_Jul_26_1345,midd,
target,kuku,stim/kuku.wav,2,9,109,32,,,space,1.16744709015,,,004,bco,59.9538300345,prodShadow,2015_Jul_26_1345,midd,
pname,dodo,stim/dodo.wav,2,10,110,15,,,space,1.23457980156,,,004,bco,59.9538300345,prodShadow,2015_Jul_26_1345,midd,
target,goko,stim/goko.wav,2,11,111,24,,,space,1.35039305687,,,004,bco,59.9538300345,prodShadow,2015_Jul_26_1345,midd,
pname,taco,stim/taco.wav,2,12,112,42,,,space,1.23362708092,,,004,bco,59.9538300345,prodShadow,2015_Jul_26_1345,midd,
target,geke,stim/geke.wav,2,13,113,22,,,space,1.36777496338,,,004,bco,59.9538300345,prodShadow,2015_Jul_26_1345,midd,
distractor,uta,stim/uta.wav,2,14,114,49,,,space,1.10041809082,,,004,bco,59.9538300345,prodShadow,2015_Jul_26_1345,midd,
target,kiki,stim/kiki.wav,2,15,115,30,,,space,1.2502758503,,,004,bco,59.9538300345,prodShadow,2015_Jul_26_1345,midd,
target,puku,stim/puku.wav,2,16,116,41,,,space,1.2011680603,,,004,bco,59.9538300345,prodShadow,2015_Jul_26_1345,midd,
target,gaka,stim/gaka.wav,2,17,117,20,,,space,1.31745290756,,,004,bco,59.9538300345,prodShadow,2015_Jul_26_1345,midd,
distractor,epa,stim/epa.wav,2,18,118,19,,,space,1.21769380569,,,004,bco,59.9538300345,prodShadow,2015_Jul_26_1345,midd,
target,buku,stim/buku.wav,2,19,119,8,,,space,1.3162920475,,,004,bco,59.9538300345,prodShadow,2015_Jul_26_1345,midd,
target,poko,stim/poko.wav,2,20,120,39,,,space,1.20035910606,,,004,bco,59.9538300345,prodShadow,2015_Jul_26_1345,midd,
target,koko,stim/koko.wav,2,21,121,31,,,space,1.30100989342,,,004,bco,59.9538300345,prodShadow,2015_Jul_26_1345,midd,
distractor,eda,stim/eda.wav,2,22,122,18,,,space,1.2675139904,,,004,bco,59.9538300345,prodShadow,2015_Jul_26_1345,midd,
target,peke,stim/peke.wav,2,23,123,37,,,space,1.30136179924,,,004,bco,59.9538300345,prodShadow,2015_Jul_26_1345,midd,
pname,bola,stim/bola.wav,2,24,124,7,,,space,1.33451390266,,,004,bco,59.9538300345,prodShadow,2015_Jul_26_1345,midd,
pname,polo,stim/polo.wav,2,25,125,40,,,space,1.16620397568,,,004,bco,59.9538300345,prodShadow,2015_Jul_26_1345,midd,
target,duku,stim/duku.wav,2,26,126,17,,,space,1.35055994987,,,004,bco,59.9538300345,prodShadow,2015_Jul_26_1345,midd,
target,paka,stim/paka.wav,2,27,127,35,,,space,1.21780896187,,,004,bco,59.9538300345,prodShadow,2015_Jul_26_1345,midd,
distractor,oka,stim/oka.wav,2,28,128,34,,,space,1.36640095711,,,004,bco,59.9538300345,prodShadow,2015_Jul_26_1345,midd,
target,giki,stim/giki.wav,2,29,129,23,,,space,1.31832385063,,,004,bco,59.9538300345,prodShadow,2015_Jul_26_1345,midd,
target,piki,stim/piki.wav,2,30,130,38,,,space,1.16732501984,,,004,bco,59.9538300345,prodShadow,2015_Jul_26_1345,midd,
pname,coco,stim/coco.wav,2,31,131,10,,,space,1.31769299507,,,004,bco,59.9538300345,prodShadow,2015_Jul_26_1345,midd,
target,teke,stim/teke.wav,2,32,132,44,,,space,1.21689605713,,,004,bco,59.9538300345,prodShadow,2015_Jul_26_1345,midd,
target,tuku,stim/tuku.wav,2,33,133,48,,,space,1.28469204903,,,004,bco,59.9538300345,prodShadow,2015_Jul_26_1345,midd,
target,guku,stim/guku.wav,2,34,134,26,,,space,1.53349113464,,,004,bco,59.9538300345,prodShadow,2015_Jul_26_1345,midd,
pname,palo,stim/palo.wav,2,35,135,36,,,space,1.21794104576,,,004,bco,59.9538300345,prodShadow,2015_Jul_26_1345,midd,
target,beke,stim/beke.wav,2,36,136,4,,,space,1.43451118469,,,004,bco,59.9538300345,prodShadow,2015_Jul_26_1345,midd,
distractor,apa,stim/apa.wav,2,37,137,1,,,space,1.1171901226,,,004,bco,59.9538300345,prodShadow,2015_Jul_26_1345,midd,
pname,topo,stim/topo.wav,2,38,138,46,,,space,1.18359088898,,,004,bco,59.9538300345,prodShadow,2015_Jul_26_1345,midd,
target,baka,stim/baka.wav,2,39,139,2,,,space,1.30115318298,,,004,bco,59.9538300345,prodShadow,2015_Jul_26_1345,midd,
target,deke,stim/deke.wav,2,40,140,13,,,space,1.58406400681,,,004,bco,59.9538300345,prodShadow,2015_Jul_26_1345,midd,
target,tiki,stim/tiki.wav,2,41,141,45,,,space,0.416785955429,,,004,bco,59.9538300345,prodShadow,2015_Jul_26_1345,midd,
target,toko,stim/toko.wav,2,42,142,47,,,space,1.7343890667,,,004,bco,59.9538300345,prodShadow,2015_Jul_26_1345,midd,
pname,bala,stim/bala.wav,2,43,143,3,,,space,1.66781783104,,,004,bco,59.9538300345,prodShadow,2015_Jul_26_1345,midd,
pname,gato,stim/gato.wav,2,44,144,21,,,space,1.6830470562,,,004,bco,59.9538300345,prodShadow,2015_Jul_26_1345,midd,
pname,gota,stim/gota.wav,2,45,145,25,,,space,1.41714811325,,,004,bco,59.9538300345,prodShadow,2015_Jul_26_1345,midd,
target,kaka,stim/kaka.wav,2,46,146,28,,,space,1.3333978653,,,004,bco,59.9538300345,prodShadow,2015_Jul_26_1345,midd,
distractor,oba,stim/oba.wav,2,47,147,33,,,space,1.33449792862,,,004,bco,59.9538300345,prodShadow,2015_Jul_26_1345,midd,
target,daka,stim/daka.wav,2,48,148,12,,,space,1.45134806633,,,004,bco,59.9538300345,prodShadow,2015_Jul_26_1345,midd,
distractor,ita,stim/ita.wav,2,49,149,27,,,space,1.46752285957,,,004,bco,59.9538300345,prodShadow,2015_Jul_26_1345,midd,
,,,,,,,,,,,space,80.3578360081,004,bco,59.9538300345,prodShadow,2015_Jul_26_1345,midd,
