status,text,stim,trials.thisRepN,trials.thisTrialN,trials.thisN,trials.thisIndex,key_resp_3.keys,key_resp_3.rt,key_resp_2.keys,key_resp_2.rt,key_resp_4.keys,key_resp_4.rt,session,participant,frameRate,expName,date,condition,
,,,,,,,space,2.14773702621,,,,,001,barbibi,58.6909809387,prodShadow,2016_Feb_09_1524,tuc,
pname,dado,stim/dado.wav,0,0,0,11,,,space,6.48479294777,,,001,barbibi,58.6909809387,prodShadow,2016_Feb_09_1524,tuc,
pname,taco,stim/taco.wav,0,1,1,42,,,space,4.71757888794,,,001,barbibi,58.6909809387,prodShadow,2016_Feb_09_1524,tuc,
pname,gato,stim/gato.wav,0,2,2,21,,,space,2.08020687103,,,001,barbibi,58.6909809387,prodShadow,2016_Feb_09_1524,tuc,
target,biki,stim/biki.wav,0,3,3,5,,,space,1.55379605293,,,001,barbibi,58.6909809387,prodShadow,2016_Feb_09_1524,tuc,
target,kiki,stim/kiki.wav,0,4,4,30,,,space,0.918102025986,,,001,barbibi,58.6909809387,prodShadow,2016_Feb_09_1524,tuc,
target,beke,stim/beke.wav,0,5,5,4,,,space,1.73422598839,,,001,barbibi,58.6909809387,prodShadow,2016_Feb_09_1524,tuc,
target,kaka,stim/kaka.wav,0,6,6,28,,,space,1.20098400116,,,001,barbibi,58.6909809387,prodShadow,2016_Feb_09_1524,tuc,
target,duku,stim/duku.wav,0,7,7,17,,,space,1.16746997833,,,001,barbibi,58.6909809387,prodShadow,2016_Feb_09_1524,tuc,
target,baka,stim/baka.wav,0,8,8,2,,,space,0.917588949203,,,001,barbibi,58.6909809387,prodShadow,2016_Feb_09_1524,tuc,
distractor,ita,stim/ita.wav,0,9,9,27,,,space,1.18061184883,,,001,barbibi,58.6909809387,prodShadow,2016_Feb_09_1524,tuc,
target,poko,stim/poko.wav,0,10,10,39,,,space,1.29820513725,,,001,barbibi,58.6909809387,prodShadow,2016_Feb_09_1524,tuc,
target,giki,stim/giki.wav,0,11,11,23,,,space,1.03350806236,,,001,barbibi,58.6909809387,prodShadow,2016_Feb_09_1524,tuc,
target,kuku,stim/kuku.wav,0,12,12,32,,,space,1.1175031662,,,001,barbibi,58.6909809387,prodShadow,2016_Feb_09_1524,tuc,
target,piki,stim/piki.wav,0,13,13,38,,,space,1.56728816032,,,001,barbibi,58.6909809387,prodShadow,2016_Feb_09_1524,tuc,
pname,bala,stim/bala.wav,0,14,14,3,,,space,0.93390583992,,,001,barbibi,58.6909809387,prodShadow,2016_Feb_09_1524,tuc,
distractor,epa,stim/epa.wav,0,15,15,19,,,space,1.0700340271,,,001,barbibi,58.6909809387,prodShadow,2016_Feb_09_1524,tuc,
target,taka,stim/taka.wav,0,16,16,43,,,space,1.17107796669,,,001,barbibi,58.6909809387,prodShadow,2016_Feb_09_1524,tuc,
pname,polo,stim/polo.wav,0,17,17,40,,,space,1.03407096863,,,001,barbibi,58.6909809387,prodShadow,2016_Feb_09_1524,tuc,
target,keke,stim/keke.wav,0,18,18,29,,,space,1.18029999733,,,001,barbibi,58.6909809387,prodShadow,2016_Feb_09_1524,tuc,
target,goko,stim/goko.wav,0,19,19,24,,,space,0.96744799614,,,001,barbibi,58.6909809387,prodShadow,2016_Feb_09_1524,tuc,
target,tiki,stim/tiki.wav,0,20,20,45,,,space,1.08108687401,,,001,barbibi,58.6909809387,prodShadow,2016_Feb_09_1524,tuc,
target,puku,stim/puku.wav,0,21,21,41,,,space,0.853385925293,,,001,barbibi,58.6909809387,prodShadow,2016_Feb_09_1524,tuc,
distractor,uta,stim/uta.wav,0,22,22,49,,,space,1.00141310692,,,001,barbibi,58.6909809387,prodShadow,2016_Feb_09_1524,tuc,
distractor,apa,stim/apa.wav,0,23,23,1,,,space,1.06722712517,,,001,barbibi,58.6909809387,prodShadow,2016_Feb_09_1524,tuc,
target,diki,stim/diki.wav,0,24,24,14,,,space,0.981297016144,,,001,barbibi,58.6909809387,prodShadow,2016_Feb_09_1524,tuc,
pname,caca,stim/caca.wav,0,25,25,9,,,space,0.950436115265,,,001,barbibi,58.6909809387,prodShadow,2016_Feb_09_1524,tuc,
pname,palo,stim/palo.wav,0,26,26,36,,,space,0.967019081116,,,001,barbibi,58.6909809387,prodShadow,2016_Feb_09_1524,tuc,
distractor,eda,stim/eda.wav,0,27,27,18,,,space,1.41777515411,,,001,barbibi,58.6909809387,prodShadow,2016_Feb_09_1524,tuc,
target,toko,stim/toko.wav,0,28,28,47,,,space,1.03293299675,,,001,barbibi,58.6909809387,prodShadow,2016_Feb_09_1524,tuc,
target,boko,stim/boko.wav,0,29,29,6,,,space,0.781253814697,,,001,barbibi,58.6909809387,prodShadow,2016_Feb_09_1524,tuc,
distractor,oka,stim/oka.wav,0,30,30,34,,,space,1.07113003731,,,001,barbibi,58.6909809387,prodShadow,2016_Feb_09_1524,tuc,
distractor,oba,stim/oba.wav,0,31,31,33,,,space,1.12007594109,,,001,barbibi,58.6909809387,prodShadow,2016_Feb_09_1524,tuc,
target,geke,stim/geke.wav,0,32,32,22,,,space,1.2342569828,,,001,barbibi,58.6909809387,prodShadow,2016_Feb_09_1524,tuc,
pname,coco,stim/coco.wav,0,33,33,10,,,space,0.933731079102,,,001,barbibi,58.6909809387,prodShadow,2016_Feb_09_1524,tuc,
target,gaka,stim/gaka.wav,0,34,34,20,,,space,1.09759092331,,,001,barbibi,58.6909809387,prodShadow,2016_Feb_09_1524,tuc,
target,paka,stim/paka.wav,0,35,35,35,,,space,0.867233991623,,,001,barbibi,58.6909809387,prodShadow,2016_Feb_09_1524,tuc,
target,deke,stim/deke.wav,0,36,36,13,,,space,1.0342168808,,,001,barbibi,58.6909809387,prodShadow,2016_Feb_09_1524,tuc,
pname,dodo,stim/dodo.wav,0,37,37,15,,,space,1.23412513733,,,001,barbibi,58.6909809387,prodShadow,2016_Feb_09_1524,tuc,
target,guku,stim/guku.wav,0,38,38,26,,,space,0.970102071762,,,001,barbibi,58.6909809387,prodShadow,2016_Feb_09_1524,tuc,
target,peke,stim/peke.wav,0,39,39,37,,,space,0.797835826874,,,001,barbibi,58.6909809387,prodShadow,2016_Feb_09_1524,tuc,
pname,topo,stim/topo.wav,0,40,40,46,,,space,0.704144001007,,,001,barbibi,58.6909809387,prodShadow,2016_Feb_09_1524,tuc,
target,daka,stim/daka.wav,0,41,41,12,,,space,0.870136022568,,,001,barbibi,58.6909809387,prodShadow,2016_Feb_09_1524,tuc,
pname,bola,stim/bola.wav,0,42,42,7,,,space,1.03694200516,,,001,barbibi,58.6909809387,prodShadow,2016_Feb_09_1524,tuc,
target,doko,stim/doko.wav,0,43,43,16,,,space,0.93105006218,,,001,barbibi,58.6909809387,prodShadow,2016_Feb_09_1524,tuc,
target,tuku,stim/tuku.wav,0,44,44,48,,,space,0.601016044617,,,001,barbibi,58.6909809387,prodShadow,2016_Feb_09_1524,tuc,
target,koko,stim/koko.wav,0,45,45,31,,,space,1.16751790047,,,001,barbibi,58.6909809387,prodShadow,2016_Feb_09_1524,tuc,
pname,gota,stim/gota.wav,0,46,46,25,,,space,0.817023992538,,,001,barbibi,58.6909809387,prodShadow,2016_Feb_09_1524,tuc,
target,buku,stim/buku.wav,0,47,47,8,,,space,1.10426402092,,,001,barbibi,58.6909809387,prodShadow,2016_Feb_09_1524,tuc,
target,teke,stim/teke.wav,0,48,48,44,,,space,0.967140197754,,,001,barbibi,58.6909809387,prodShadow,2016_Feb_09_1524,tuc,
distractor,ada,stim/ada.wav,0,49,49,0,,,space,0.953952074051,,,001,barbibi,58.6909809387,prodShadow,2016_Feb_09_1524,tuc,
target,peke,stim/peke.wav,1,0,50,37,,,space,0.730948925018,,,001,barbibi,58.6909809387,prodShadow,2016_Feb_09_1524,tuc,
pname,topo,stim/topo.wav,1,1,51,46,,,space,1.08417487144,,,001,barbibi,58.6909809387,prodShadow,2016_Feb_09_1524,tuc,
target,kaka,stim/kaka.wav,1,2,52,28,,,space,0.883492946625,,,001,barbibi,58.6909809387,prodShadow,2016_Feb_09_1524,tuc,
pname,polo,stim/polo.wav,1,3,53,40,,,space,0.831110954285,,,001,barbibi,58.6909809387,prodShadow,2016_Feb_09_1524,tuc,
target,koko,stim/koko.wav,1,4,54,31,,,space,1.1507229805,,,001,barbibi,58.6909809387,prodShadow,2016_Feb_09_1524,tuc,
pname,dado,stim/dado.wav,1,5,55,11,,,space,0.918141841888,,,001,barbibi,58.6909809387,prodShadow,2016_Feb_09_1524,tuc,
distractor,oka,stim/oka.wav,1,6,56,34,,,space,0.884006023407,,,001,barbibi,58.6909809387,prodShadow,2016_Feb_09_1524,tuc,
distractor,ita,stim/ita.wav,1,7,57,27,,,space,0.987092018127,,,001,barbibi,58.6909809387,prodShadow,2016_Feb_09_1524,tuc,
target,gaka,stim/gaka.wav,1,8,58,20,,,space,1.33067798615,,,001,barbibi,58.6909809387,prodShadow,2016_Feb_09_1524,tuc,
distractor,oba,stim/oba.wav,1,9,59,33,,,space,0.834653139114,,,001,barbibi,58.6909809387,prodShadow,2016_Feb_09_1524,tuc,
target,deke,stim/deke.wav,1,10,60,13,,,space,0.970791101456,,,001,barbibi,58.6909809387,prodShadow,2016_Feb_09_1524,tuc,
pname,gota,stim/gota.wav,1,11,61,25,,,space,1.10043907166,,,001,barbibi,58.6909809387,prodShadow,2016_Feb_09_1524,tuc,
target,boko,stim/boko.wav,1,12,62,6,,,space,0.934127092361,,,001,barbibi,58.6909809387,prodShadow,2016_Feb_09_1524,tuc,
target,daka,stim/daka.wav,1,13,63,12,,,space,1.11743593216,,,001,barbibi,58.6909809387,prodShadow,2016_Feb_09_1524,tuc,
target,puku,stim/puku.wav,1,14,64,41,,,space,0.921164989471,,,001,barbibi,58.6909809387,prodShadow,2016_Feb_09_1524,tuc,
pname,bola,stim/bola.wav,1,15,65,7,,,space,0.937874078751,,,001,barbibi,58.6909809387,prodShadow,2016_Feb_09_1524,tuc,
target,baka,stim/baka.wav,1,16,66,2,,,space,1.06453514099,,,001,barbibi,58.6909809387,prodShadow,2016_Feb_09_1524,tuc,
distractor,epa,stim/epa.wav,1,17,67,19,,,space,0.867468118668,,,001,barbibi,58.6909809387,prodShadow,2016_Feb_09_1524,tuc,
target,keke,stim/keke.wav,1,18,68,29,,,space,0.913766145706,,,001,barbibi,58.6909809387,prodShadow,2016_Feb_09_1524,tuc,
distractor,apa,stim/apa.wav,1,19,69,1,,,space,1.20090699196,,,001,barbibi,58.6909809387,prodShadow,2016_Feb_09_1524,tuc,
target,biki,stim/biki.wav,1,20,70,5,,,space,0.630800008774,,,001,barbibi,58.6909809387,prodShadow,2016_Feb_09_1524,tuc,
target,tuku,stim/tuku.wav,1,21,71,48,,,space,0.580762147903,,,001,barbibi,58.6909809387,prodShadow,2016_Feb_09_1524,tuc,
target,tiki,stim/tiki.wav,1,22,72,45,,,space,0.820883989334,,,001,barbibi,58.6909809387,prodShadow,2016_Feb_09_1524,tuc,
pname,gato,stim/gato.wav,1,23,73,21,,,space,0.904245853424,,,001,barbibi,58.6909809387,prodShadow,2016_Feb_09_1524,tuc,
target,geke,stim/geke.wav,1,24,74,22,,,space,0.997931957245,,,001,barbibi,58.6909809387,prodShadow,2016_Feb_09_1524,tuc,
target,kuku,stim/kuku.wav,1,25,75,32,,,space,0.987046003342,,,001,barbibi,58.6909809387,prodShadow,2016_Feb_09_1524,tuc,
target,doko,stim/doko.wav,1,26,76,16,,,space,0.546853065491,,,001,barbibi,58.6909809387,prodShadow,2016_Feb_09_1524,tuc,
target,kiki,stim/kiki.wav,1,27,77,30,,,space,1.00058102608,,,001,barbibi,58.6909809387,prodShadow,2016_Feb_09_1524,tuc,
target,diki,stim/diki.wav,1,28,78,14,,,space,0.600831031799,,,001,barbibi,58.6909809387,prodShadow,2016_Feb_09_1524,tuc,
target,beke,stim/beke.wav,1,29,79,4,,,space,0.933928966522,,,001,barbibi,58.6909809387,prodShadow,2016_Feb_09_1524,tuc,
target,teke,stim/teke.wav,1,30,80,44,,,space,0.934854030609,,,001,barbibi,58.6909809387,prodShadow,2016_Feb_09_1524,tuc,
target,toko,stim/toko.wav,1,31,81,47,,,space,0.901417016983,,,001,barbibi,58.6909809387,prodShadow,2016_Feb_09_1524,tuc,
pname,bala,stim/bala.wav,1,32,82,3,,,space,0.604043006897,,,001,barbibi,58.6909809387,prodShadow,2016_Feb_09_1524,tuc,
target,taka,stim/taka.wav,1,33,83,43,,,space,0.650557994843,,,001,barbibi,58.6909809387,prodShadow,2016_Feb_09_1524,tuc,
target,goko,stim/goko.wav,1,34,84,24,,,space,0.967550992966,,,001,barbibi,58.6909809387,prodShadow,2016_Feb_09_1524,tuc,
target,poko,stim/poko.wav,1,35,85,39,,,space,0.963670969009,,,001,barbibi,58.6909809387,prodShadow,2016_Feb_09_1524,tuc,
distractor,eda,stim/eda.wav,1,36,86,18,,,space,0.752226114273,,,001,barbibi,58.6909809387,prodShadow,2016_Feb_09_1524,tuc,
pname,palo,stim/palo.wav,1,37,87,36,,,space,0.967545986176,,,001,barbibi,58.6909809387,prodShadow,2016_Feb_09_1524,tuc,
pname,caca,stim/caca.wav,1,38,88,9,,,space,1.00378799438,,,001,barbibi,58.6909809387,prodShadow,2016_Feb_09_1524,tuc,
distractor,ada,stim/ada.wav,1,39,89,0,,,space,0.521516084671,,,001,barbibi,58.6909809387,prodShadow,2016_Feb_09_1524,tuc,
pname,taco,stim/taco.wav,1,40,90,42,,,space,0.883995056152,,,001,barbibi,58.6909809387,prodShadow,2016_Feb_09_1524,tuc,
distractor,uta,stim/uta.wav,1,41,91,49,,,space,0.981382131577,,,001,barbibi,58.6909809387,prodShadow,2016_Feb_09_1524,tuc,
target,guku,stim/guku.wav,1,42,92,26,,,space,0.637372016907,,,001,barbibi,58.6909809387,prodShadow,2016_Feb_09_1524,tuc,
target,paka,stim/paka.wav,1,43,93,35,,,space,0.864165067673,,,001,barbibi,58.6909809387,prodShadow,2016_Feb_09_1524,tuc,
pname,coco,stim/coco.wav,1,44,94,10,,,space,0.771095991135,,,001,barbibi,58.6909809387,prodShadow,2016_Feb_09_1524,tuc,
target,giki,stim/giki.wav,1,45,95,23,,,space,1.13038110733,,,001,barbibi,58.6909809387,prodShadow,2016_Feb_09_1524,tuc,
pname,dodo,stim/dodo.wav,1,46,96,15,,,space,0.720918893814,,,001,barbibi,58.6909809387,prodShadow,2016_Feb_09_1524,tuc,
target,piki,stim/piki.wav,1,47,97,38,,,space,0.80055809021,,,001,barbibi,58.6909809387,prodShadow,2016_Feb_09_1524,tuc,
target,duku,stim/duku.wav,1,48,98,17,,,space,0.787659883499,,,001,barbibi,58.6909809387,prodShadow,2016_Feb_09_1524,tuc,
target,buku,stim/buku.wav,1,49,99,8,,,space,0.84996008873,,,001,barbibi,58.6909809387,prodShadow,2016_Feb_09_1524,tuc,
target,biki,stim/biki.wav,2,0,100,5,,,space,0.881388902664,,,001,barbibi,58.6909809387,prodShadow,2016_Feb_09_1524,tuc,
pname,coco,stim/coco.wav,2,1,101,10,,,space,0.654042005539,,,001,barbibi,58.6909809387,prodShadow,2016_Feb_09_1524,tuc,
target,tuku,stim/tuku.wav,2,2,102,48,,,space,1.10066890717,,,001,barbibi,58.6909809387,prodShadow,2016_Feb_09_1524,tuc,
distractor,ada,stim/ada.wav,2,3,103,0,,,space,0.750829935074,,,001,barbibi,58.6909809387,prodShadow,2016_Feb_09_1524,tuc,
pname,bola,stim/bola.wav,2,4,104,7,,,space,0.720906972885,,,001,barbibi,58.6909809387,prodShadow,2016_Feb_09_1524,tuc,
distractor,uta,stim/uta.wav,2,5,105,49,,,space,0.501444816589,,,001,barbibi,58.6909809387,prodShadow,2016_Feb_09_1524,tuc,
distractor,epa,stim/epa.wav,2,6,106,19,,,space,1.16752910614,,,001,barbibi,58.6909809387,prodShadow,2016_Feb_09_1524,tuc,
distractor,apa,stim/apa.wav,2,7,107,1,,,space,0.667531967163,,,001,barbibi,58.6909809387,prodShadow,2016_Feb_09_1524,tuc,
target,duku,stim/duku.wav,2,8,108,17,,,space,1.15072202682,,,001,barbibi,58.6909809387,prodShadow,2016_Feb_09_1524,tuc,
pname,taco,stim/taco.wav,2,9,109,42,,,space,0.700762033463,,,001,barbibi,58.6909809387,prodShadow,2016_Feb_09_1524,tuc,
distractor,eda,stim/eda.wav,2,10,110,18,,,space,1.06758594513,,,001,barbibi,58.6909809387,prodShadow,2016_Feb_09_1524,tuc,
pname,gato,stim/gato.wav,2,11,111,21,,,space,0.751652002335,,,001,barbibi,58.6909809387,prodShadow,2016_Feb_09_1524,tuc,
target,daka,stim/daka.wav,2,12,112,12,,,space,1.20359992981,,,001,barbibi,58.6909809387,prodShadow,2016_Feb_09_1524,tuc,
distractor,oba,stim/oba.wav,2,13,113,33,,,space,0.770038127899,,,001,barbibi,58.6909809387,prodShadow,2016_Feb_09_1524,tuc,
target,baka,stim/baka.wav,2,14,114,2,,,space,0.680999994278,,,001,barbibi,58.6909809387,prodShadow,2016_Feb_09_1524,tuc,
pname,caca,stim/caca.wav,2,15,115,9,,,space,0.733961820602,,,001,barbibi,58.6909809387,prodShadow,2016_Feb_09_1524,tuc,
target,goko,stim/goko.wav,2,16,116,24,,,space,0.863765001297,,,001,barbibi,58.6909809387,prodShadow,2016_Feb_09_1524,tuc,
target,paka,stim/paka.wav,2,17,117,35,,,space,0.784978151321,,,001,barbibi,58.6909809387,prodShadow,2016_Feb_09_1524,tuc,
target,beke,stim/beke.wav,2,18,118,4,,,space,0.833864927292,,,001,barbibi,58.6909809387,prodShadow,2016_Feb_09_1524,tuc,
target,deke,stim/deke.wav,2,19,119,13,,,space,0.833269119263,,,001,barbibi,58.6909809387,prodShadow,2016_Feb_09_1524,tuc,
target,gaka,stim/gaka.wav,2,20,120,20,,,space,0.800772190094,,,001,barbibi,58.6909809387,prodShadow,2016_Feb_09_1524,tuc,
pname,polo,stim/polo.wav,2,21,121,40,,,space,0.984092950821,,,001,barbibi,58.6909809387,prodShadow,2016_Feb_09_1524,tuc,
target,boko,stim/boko.wav,2,22,122,6,,,space,0.571002960205,,,001,barbibi,58.6909809387,prodShadow,2016_Feb_09_1524,tuc,
target,piki,stim/piki.wav,2,23,123,38,,,space,0.900884866714,,,001,barbibi,58.6909809387,prodShadow,2016_Feb_09_1524,tuc,
target,giki,stim/giki.wav,2,24,124,23,,,space,0.787548065186,,,001,barbibi,58.6909809387,prodShadow,2016_Feb_09_1524,tuc,
pname,gota,stim/gota.wav,2,25,125,25,,,space,0.550986051559,,,001,barbibi,58.6909809387,prodShadow,2016_Feb_09_1524,tuc,
target,guku,stim/guku.wav,2,26,126,26,,,space,1.08405303955,,,001,barbibi,58.6909809387,prodShadow,2016_Feb_09_1524,tuc,
target,geke,stim/geke.wav,2,27,127,22,,,space,0.650635004044,,,001,barbibi,58.6909809387,prodShadow,2016_Feb_09_1524,tuc,
target,poko,stim/poko.wav,2,28,128,39,,,space,0.780390977859,,,001,barbibi,58.6909809387,prodShadow,2016_Feb_09_1524,tuc,
target,kaka,stim/kaka.wav,2,29,129,28,,,space,0.687745809555,,,001,barbibi,58.6909809387,prodShadow,2016_Feb_09_1524,tuc,
target,koko,stim/koko.wav,2,30,130,31,,,space,2.28066897392,,,001,barbibi,58.6909809387,prodShadow,2016_Feb_09_1524,tuc,
pname,topo,stim/topo.wav,2,31,131,46,,,space,1.18132400513,,,001,barbibi,58.6909809387,prodShadow,2016_Feb_09_1524,tuc,
pname,dodo,stim/dodo.wav,2,32,132,15,,,space,0.834014892578,,,001,barbibi,58.6909809387,prodShadow,2016_Feb_09_1524,tuc,
pname,palo,stim/palo.wav,2,33,133,36,,,space,0.40055680275,,,001,barbibi,58.6909809387,prodShadow,2016_Feb_09_1524,tuc,
target,kuku,stim/kuku.wav,2,34,134,32,,,space,1.21733093262,,,001,barbibi,58.6909809387,prodShadow,2016_Feb_09_1524,tuc,
distractor,oka,stim/oka.wav,2,35,135,34,,,space,0.570934772491,,,001,barbibi,58.6909809387,prodShadow,2016_Feb_09_1524,tuc,
distractor,ita,stim/ita.wav,2,36,136,27,,,space,0.831189155579,,,001,barbibi,58.6909809387,prodShadow,2016_Feb_09_1524,tuc,
pname,dado,stim/dado.wav,2,37,137,11,,,space,1.03683304787,,,001,barbibi,58.6909809387,prodShadow,2016_Feb_09_1524,tuc,
target,kiki,stim/kiki.wav,2,38,138,30,,,space,1.00083088875,,,001,barbibi,58.6909809387,prodShadow,2016_Feb_09_1524,tuc,
target,keke,stim/keke.wav,2,39,139,29,,,space,0.74782204628,,,001,barbibi,58.6909809387,prodShadow,2016_Feb_09_1524,tuc,
target,diki,stim/diki.wav,2,40,140,14,,,space,0.78667807579,,,001,barbibi,58.6909809387,prodShadow,2016_Feb_09_1524,tuc,
target,buku,stim/buku.wav,2,41,141,8,,,space,0.720795154572,,,001,barbibi,58.6909809387,prodShadow,2016_Feb_09_1524,tuc,
target,teke,stim/teke.wav,2,42,142,44,,,space,0.934791088104,,,001,barbibi,58.6909809387,prodShadow,2016_Feb_09_1524,tuc,
target,tiki,stim/tiki.wav,2,43,143,45,,,space,0.717256069183,,,001,barbibi,58.6909809387,prodShadow,2016_Feb_09_1524,tuc,
target,peke,stim/peke.wav,2,44,144,37,,,space,0.750644922256,,,001,barbibi,58.6909809387,prodShadow,2016_Feb_09_1524,tuc,
target,puku,stim/puku.wav,2,45,145,41,,,space,0.899860858917,,,001,barbibi,58.6909809387,prodShadow,2016_Feb_09_1524,tuc,
target,doko,stim/doko.wav,2,46,146,16,,,space,0.700687885284,,,001,barbibi,58.6909809387,prodShadow,2016_Feb_09_1524,tuc,
target,toko,stim/toko.wav,2,47,147,47,,,space,0.96376490593,,,001,barbibi,58.6909809387,prodShadow,2016_Feb_09_1524,tuc,
target,taka,stim/taka.wav,2,48,148,43,,,space,0.870452880859,,,001,barbibi,58.6909809387,prodShadow,2016_Feb_09_1524,tuc,
pname,bala,stim/bala.wav,2,49,149,3,,,space,0.616787910461,,,001,barbibi,58.6909809387,prodShadow,2016_Feb_09_1524,tuc,
,,,,,,,,,,,space,31.6907110214,001,barbibi,58.6909809387,prodShadow,2016_Feb_09_1524,tuc,
