status,stim,trials.thisRepN,trials.thisTrialN,trials.thisN,trials.thisIndex,key_resp_2.keys,key_resp_2.rt,key_resp_4.keys,key_resp_4.rt,session,participant,frameRate,expName,date,condition,
target,stim/gato.png,0,0,0,14,space,0.717600107193,,,001,mam,60.0694888019,prodShadow,2015_Aug_11_1532,midd,
distractor,stim/sol.png,0,1,1,1,space,0.617365121841,,,001,mam,60.0694888019,prodShadow,2015_Aug_11_1532,midd,
distractor,stim/mochila.png,0,2,2,7,space,0.933660984039,,,001,mam,60.0694888019,prodShadow,2015_Aug_11_1532,midd,
distractor,stim/libro.png,0,3,3,5,space,0.667188167572,,,001,mam,60.0694888019,prodShadow,2015_Aug_11_1532,midd,
target,stim/palo.png,0,4,4,16,space,0.88422703743,,,001,mam,60.0694888019,prodShadow,2015_Aug_11_1532,midd,
target,stim/bala.png,0,5,5,8,space,0.984152078629,,,001,mam,60.0694888019,prodShadow,2015_Aug_11_1532,midd,
target,stim/dodo.png,0,6,6,13,space,0.700325012207,,,001,mam,60.0694888019,prodShadow,2015_Aug_11_1532,midd,
distractor,stim/lapiz.png,0,7,7,3,space,1.06719493866,,,001,mam,60.0694888019,prodShadow,2015_Aug_11_1532,midd,
distractor,stim/silla.png,0,8,8,6,space,0.683840990067,,,001,mam,60.0694888019,prodShadow,2015_Aug_11_1532,midd,
target,stim/bola.png,0,9,9,9,space,0.934376955032,,,001,mam,60.0694888019,prodShadow,2015_Aug_11_1532,midd,
distractor,stim/arbol.png,0,10,10,2,space,0.783863067627,,,001,mam,60.0694888019,prodShadow,2015_Aug_11_1532,midd,
target,stim/coco.png,0,11,11,11,space,0.717539072037,,,001,mam,60.0694888019,prodShadow,2015_Aug_11_1532,midd,
target,stim/caca.png,0,12,12,10,space,0.817195892334,,,001,mam,60.0694888019,prodShadow,2015_Aug_11_1532,midd,
target,stim/polo.png,0,13,13,17,space,0.651202917099,,,001,mam,60.0694888019,prodShadow,2015_Aug_11_1532,midd,
target,stim/gota.png,0,14,14,15,space,2.83436012268,,,001,mam,60.0694888019,prodShadow,2015_Aug_11_1532,midd,
target,stim/taco.png,0,15,15,18,space,0.834115028381,,,001,mam,60.0694888019,prodShadow,2015_Aug_11_1532,midd,
distractor,stim/manzana.png,0,16,16,4,space,1.73390388489,,,001,mam,60.0694888019,prodShadow,2015_Aug_11_1532,midd,
distractor,stim/sombrero.png,0,17,17,0,space,0.900459051132,,,001,mam,60.0694888019,prodShadow,2015_Aug_11_1532,midd,
target,stim/topo.png,0,18,18,19,space,0.934012889862,,,001,mam,60.0694888019,prodShadow,2015_Aug_11_1532,midd,
target,stim/dado.png,0,19,19,12,space,0.967339038849,,,001,mam,60.0694888019,prodShadow,2015_Aug_11_1532,midd,
target,stim/polo.png,1,0,20,17,space,0.850178956985,,,001,mam,60.0694888019,prodShadow,2015_Aug_11_1532,midd,
target,stim/gota.png,1,1,21,15,space,3.58497214317,,,001,mam,60.0694888019,prodShadow,2015_Aug_11_1532,midd,
target,stim/dodo.png,1,2,22,13,space,0.834290027618,,,001,mam,60.0694888019,prodShadow,2015_Aug_11_1532,midd,
target,stim/dado.png,1,3,23,12,space,0.817340135574,,,001,mam,60.0694888019,prodShadow,2015_Aug_11_1532,midd,
distractor,stim/arbol.png,1,4,24,2,space,0.817296981812,,,001,mam,60.0694888019,prodShadow,2015_Aug_11_1532,midd,
distractor,stim/sombrero.png,1,5,25,0,space,0.800812959671,,,001,mam,60.0694888019,prodShadow,2015_Aug_11_1532,midd,
distractor,stim/manzana.png,1,6,26,4,space,0.866863012314,,,001,mam,60.0694888019,prodShadow,2015_Aug_11_1532,midd,
target,stim/caca.png,1,7,27,10,space,1.15036702156,,,001,mam,60.0694888019,prodShadow,2015_Aug_11_1532,midd,
target,stim/topo.png,1,8,28,19,space,0.784002065659,,,001,mam,60.0694888019,prodShadow,2015_Aug_11_1532,midd,
target,stim/coco.png,1,9,29,11,space,0.667244195938,,,001,mam,60.0694888019,prodShadow,2015_Aug_11_1532,midd,
distractor,stim/lapiz.png,1,10,30,3,space,0.784024000168,,,001,mam,60.0694888019,prodShadow,2015_Aug_11_1532,midd,
distractor,stim/sol.png,1,11,31,1,space,0.617282867432,,,001,mam,60.0694888019,prodShadow,2015_Aug_11_1532,midd,
target,stim/palo.png,1,12,32,16,space,0.833852052689,,,001,mam,60.0694888019,prodShadow,2015_Aug_11_1532,midd,
target,stim/gato.png,1,13,33,14,space,0.833942174911,,,001,mam,60.0694888019,prodShadow,2015_Aug_11_1532,midd,
target,stim/taco.png,1,14,34,18,space,0.600252151489,,,001,mam,60.0694888019,prodShadow,2015_Aug_11_1532,midd,
distractor,stim/libro.png,1,15,35,5,space,0.650530099869,,,001,mam,60.0694888019,prodShadow,2015_Aug_11_1532,midd,
target,stim/bala.png,1,16,36,8,space,1.23406791687,,,001,mam,60.0694888019,prodShadow,2015_Aug_11_1532,midd,
distractor,stim/silla.png,1,17,37,6,space,0.651078939438,,,001,mam,60.0694888019,prodShadow,2015_Aug_11_1532,midd,
target,stim/bola.png,1,18,38,9,space,0.900573015213,,,001,mam,60.0694888019,prodShadow,2015_Aug_11_1532,midd,
distractor,stim/mochila.png,1,19,39,7,space,0.983679771423,,,001,mam,60.0694888019,prodShadow,2015_Aug_11_1532,midd,
distractor,stim/arbol.png,2,0,40,2,space,0.850503206253,,,001,mam,60.0694888019,prodShadow,2015_Aug_11_1532,midd,
target,stim/polo.png,2,1,41,17,space,0.684051036835,,,001,mam,60.0694888019,prodShadow,2015_Aug_11_1532,midd,
target,stim/bala.png,2,2,42,8,space,0.950749874115,,,001,mam,60.0694888019,prodShadow,2015_Aug_11_1532,midd,
target,stim/gota.png,2,3,43,15,space,2.35131192207,,,001,mam,60.0694888019,prodShadow,2015_Aug_11_1532,midd,
target,stim/topo.png,2,4,44,19,space,0.784348011017,,,001,mam,60.0694888019,prodShadow,2015_Aug_11_1532,midd,
target,stim/caca.png,2,5,45,10,space,0.583854913712,,,001,mam,60.0694888019,prodShadow,2015_Aug_11_1532,midd,
distractor,stim/mochila.png,2,6,46,7,space,0.750829935074,,,001,mam,60.0694888019,prodShadow,2015_Aug_11_1532,midd,
distractor,stim/manzana.png,2,7,47,4,space,0.850598812103,,,001,mam,60.0694888019,prodShadow,2015_Aug_11_1532,midd,
target,stim/dodo.png,2,8,48,13,space,0.867448091507,,,001,mam,60.0694888019,prodShadow,2015_Aug_11_1532,midd,
target,stim/gato.png,2,9,49,14,space,0.667155981064,,,001,mam,60.0694888019,prodShadow,2015_Aug_11_1532,midd,
target,stim/taco.png,2,10,50,18,space,0.583916187286,,,001,mam,60.0694888019,prodShadow,2015_Aug_11_1532,midd,
target,stim/coco.png,2,11,51,11,space,0.617144107819,,,001,mam,60.0694888019,prodShadow,2015_Aug_11_1532,midd,
distractor,stim/lapiz.png,2,12,52,3,space,0.767096042633,,,001,mam,60.0694888019,prodShadow,2015_Aug_11_1532,midd,
distractor,stim/libro.png,2,13,53,5,space,0.834149837494,,,001,mam,60.0694888019,prodShadow,2015_Aug_11_1532,midd,
distractor,stim/silla.png,2,14,54,6,space,0.700967073441,,,001,mam,60.0694888019,prodShadow,2015_Aug_11_1532,midd,
distractor,stim/sol.png,2,15,55,1,space,0.583575963974,,,001,mam,60.0694888019,prodShadow,2015_Aug_11_1532,midd,
distractor,stim/sombrero.png,2,16,56,0,space,0.717293024063,,,001,mam,60.0694888019,prodShadow,2015_Aug_11_1532,midd,
target,stim/palo.png,2,17,57,16,space,0.684044837952,,,001,mam,60.0694888019,prodShadow,2015_Aug_11_1532,midd,
target,stim/bola.png,2,18,58,9,space,1.58417916298,,,001,mam,60.0694888019,prodShadow,2015_Aug_11_1532,midd,
target,stim/dado.png,2,19,59,12,space,0.967314958572,,,001,mam,60.0694888019,prodShadow,2015_Aug_11_1532,midd,
,,,,,,,,space,2.95013809204,001,mam,60.0694888019,prodShadow,2015_Aug_11_1532,midd,
