status,text,stim,trials.thisRepN,trials.thisTrialN,trials.thisN,trials.thisIndex,key_resp_3.keys,key_resp_3.rt,key_resp_2.keys,key_resp_2.rt,key_resp_4.keys,key_resp_4.rt,session,participant,frameRate,expName,date,condition,
,,,,,,,space,2.4686729908,,,,,000,jkw,60.0308004099,prodShadow,2015_Jun_29_1702,midd,
pname,palo,stim/palo.wav,0,0,0,36,,,space,5.03427600861,,,000,jkw,60.0308004099,prodShadow,2015_Jun_29_1702,midd,
distractor,oka,stim/oka.wav,0,1,1,34,,,space,4.03422999382,,,000,jkw,60.0308004099,prodShadow,2015_Jun_29_1702,midd,
target,tiki,stim/tiki.wav,0,2,2,45,,,space,3.33413910866,,,000,jkw,60.0308004099,prodShadow,2015_Jun_29_1702,midd,
pname,taco,stim/taco.wav,0,3,3,42,,,space,3.80157113075,,,000,jkw,60.0308004099,prodShadow,2015_Jun_29_1702,midd,
target,kuku,stim/kuku.wav,0,4,4,32,,,space,3.50153112411,,,000,jkw,60.0308004099,prodShadow,2015_Jun_29_1702,midd,
distractor,uta,stim/uta.wav,0,5,5,49,,,space,3.4687461853,,,000,jkw,60.0308004099,prodShadow,2015_Jun_29_1702,midd,
pname,dodo,stim/dodo.wav,0,6,6,15,,,space,3.71816015244,,,000,jkw,60.0308004099,prodShadow,2015_Jun_29_1702,midd,
target,kiki,stim/kiki.wav,0,7,7,30,,,space,3.66727209091,,,000,jkw,60.0308004099,prodShadow,2015_Jun_29_1702,midd,
distractor,ada,stim/ada.wav,0,8,8,0,,,space,3.61708903313,,,000,jkw,60.0308004099,prodShadow,2015_Jun_29_1702,midd,
target,taka,stim/taka.wav,0,9,9,43,,,space,3.48466014862,,,000,jkw,60.0308004099,prodShadow,2015_Jun_29_1702,midd,
target,giki,stim/giki.wav,0,10,10,23,,,space,3.45049285889,,,000,jkw,60.0308004099,prodShadow,2015_Jun_29_1702,midd,
target,doko,stim/doko.wav,0,11,11,16,,,space,3.75105595589,,,000,jkw,60.0308004099,prodShadow,2015_Jun_29_1702,midd,
target,poko,stim/poko.wav,0,12,12,39,,,space,3.33505487442,,,000,jkw,60.0308004099,prodShadow,2015_Jun_29_1702,midd,
pname,topo,stim/topo.wav,0,13,13,46,,,space,3.40114092827,,,000,jkw,60.0308004099,prodShadow,2015_Jun_29_1702,midd,
target,guku,stim/guku.wav,0,14,14,26,,,space,3.55064606667,,,000,jkw,60.0308004099,prodShadow,2015_Jun_29_1702,midd,
target,baka,stim/baka.wav,0,15,15,2,,,space,4.05107092857,,,000,jkw,60.0308004099,prodShadow,2015_Jun_29_1702,midd,
pname,gota,stim/gota.wav,0,16,16,25,,,space,3.65185284615,,,000,jkw,60.0308004099,prodShadow,2015_Jun_29_1702,midd,
distractor,oba,stim/oba.wav,0,17,17,33,,,space,3.43414592743,,,000,jkw,60.0308004099,prodShadow,2015_Jun_29_1702,midd,
pname,bala,stim/bala.wav,0,18,18,3,,,space,3.56745696068,,,000,jkw,60.0308004099,prodShadow,2015_Jun_29_1702,midd,
target,puku,stim/puku.wav,0,19,19,41,,,space,3.64995503426,,,000,jkw,60.0308004099,prodShadow,2015_Jun_29_1702,midd,
target,beke,stim/beke.wav,0,20,20,4,,,space,3.96545004845,,,000,jkw,60.0308004099,prodShadow,2015_Jun_29_1702,midd,
target,keke,stim/keke.wav,0,21,21,29,,,space,3.61715006828,,,000,jkw,60.0308004099,prodShadow,2015_Jun_29_1702,midd,
target,biki,stim/biki.wav,0,22,22,5,,,space,3.79943394661,,,000,jkw,60.0308004099,prodShadow,2015_Jun_29_1702,midd,
target,paka,stim/paka.wav,0,23,23,35,,,space,3.68153214455,,,000,jkw,60.0308004099,prodShadow,2015_Jun_29_1702,midd,
pname,gato,stim/gato.wav,0,24,24,21,,,space,3.81642389297,,,000,jkw,60.0308004099,prodShadow,2015_Jun_29_1702,midd,
target,daka,stim/daka.wav,0,25,25,12,,,space,3.83416390419,,,000,jkw,60.0308004099,prodShadow,2015_Jun_29_1702,midd,
target,deke,stim/deke.wav,0,26,26,13,,,space,3.66631293297,,,000,jkw,60.0308004099,prodShadow,2015_Jun_29_1702,midd,
target,goko,stim/goko.wav,0,27,27,24,,,space,3.50039815903,,,000,jkw,60.0308004099,prodShadow,2015_Jun_29_1702,midd,
distractor,eda,stim/eda.wav,0,28,28,18,,,space,3.43354201317,,,000,jkw,60.0308004099,prodShadow,2015_Jun_29_1702,midd,
target,gaka,stim/gaka.wav,0,29,29,20,,,space,3.46596693993,,,000,jkw,60.0308004099,prodShadow,2015_Jun_29_1702,midd,
target,diki,stim/diki.wav,0,30,30,14,,,space,3.58671712875,,,000,jkw,60.0308004099,prodShadow,2015_Jun_29_1702,midd,
target,boko,stim/boko.wav,0,31,31,6,,,space,3.5996029377,,,000,jkw,60.0308004099,prodShadow,2015_Jun_29_1702,midd,
target,koko,stim/koko.wav,0,32,32,31,,,space,3.4659049511,,,000,jkw,60.0308004099,prodShadow,2015_Jun_29_1702,midd,
target,piki,stim/piki.wav,0,33,33,38,,,space,3.40023803711,,,000,jkw,60.0308004099,prodShadow,2015_Jun_29_1702,midd,
target,kaka,stim/kaka.wav,0,34,34,28,,,space,3.63329100609,,,000,jkw,60.0308004099,prodShadow,2015_Jun_29_1702,midd,
target,toko,stim/toko.wav,0,35,35,47,,,space,3.51717495918,,,000,jkw,60.0308004099,prodShadow,2015_Jun_29_1702,midd,
target,peke,stim/peke.wav,0,36,36,37,,,space,3.3662750721,,,000,jkw,60.0308004099,prodShadow,2015_Jun_29_1702,midd,
target,tuku,stim/tuku.wav,0,37,37,48,,,space,3.20128202438,,,000,jkw,60.0308004099,prodShadow,2015_Jun_29_1702,midd,
pname,polo,stim/polo.wav,0,38,38,40,,,space,3.5187959671,,,000,jkw,60.0308004099,prodShadow,2015_Jun_29_1702,midd,
pname,dado,stim/dado.wav,0,39,39,11,,,space,3.76591110229,,,000,jkw,60.0308004099,prodShadow,2015_Jun_29_1702,midd,
pname,coco,stim/coco.wav,0,40,40,10,,,space,3.63410115242,,,000,jkw,60.0308004099,prodShadow,2015_Jun_29_1702,midd,
target,duku,stim/duku.wav,0,41,41,17,,,space,3.73435902596,,,000,jkw,60.0308004099,prodShadow,2015_Jun_29_1702,midd,
target,buku,stim/buku.wav,0,42,42,8,,,space,4.0011639595,,,000,jkw,60.0308004099,prodShadow,2015_Jun_29_1702,midd,
distractor,ita,stim/ita.wav,0,43,43,27,,,space,3.66774916649,,,000,jkw,60.0308004099,prodShadow,2015_Jun_29_1702,midd,
distractor,epa,stim/epa.wav,0,44,44,19,,,space,3.31744384766,,,000,jkw,60.0308004099,prodShadow,2015_Jun_29_1702,midd,
target,geke,stim/geke.wav,0,45,45,22,,,space,3.61756014824,,,000,jkw,60.0308004099,prodShadow,2015_Jun_29_1702,midd,
pname,bola,stim/bola.wav,0,46,46,7,,,space,3.65033793449,,,000,jkw,60.0308004099,prodShadow,2015_Jun_29_1702,midd,
pname,caca,stim/caca.wav,0,47,47,9,,,space,3.25148582458,,,000,jkw,60.0308004099,prodShadow,2015_Jun_29_1702,midd,
distractor,apa,stim/apa.wav,0,48,48,1,,,space,3.33438301086,,,000,jkw,60.0308004099,prodShadow,2015_Jun_29_1702,midd,
target,teke,stim/teke.wav,0,49,49,44,,,space,3.23462605476,,,000,jkw,60.0308004099,prodShadow,2015_Jun_29_1702,midd,
pname,bala,stim/bala.wav,1,0,50,3,,,space,3.55144405365,,,000,jkw,60.0308004099,prodShadow,2015_Jun_29_1702,midd,
distractor,apa,stim/apa.wav,1,1,51,1,,,space,3.35159993172,,,000,jkw,60.0308004099,prodShadow,2015_Jun_29_1702,midd,
target,beke,stim/beke.wav,1,2,52,4,,,space,3.86772179604,,,000,jkw,60.0308004099,prodShadow,2015_Jun_29_1702,midd,
target,boko,stim/boko.wav,1,3,53,6,,,space,3.75017499924,,,000,jkw,60.0308004099,prodShadow,2015_Jun_29_1702,midd,
target,buku,stim/buku.wav,1,4,54,8,,,space,4.06795883179,,,000,jkw,60.0308004099,prodShadow,2015_Jun_29_1702,midd,
target,paka,stim/paka.wav,1,5,55,35,,,space,3.75064086914,,,000,jkw,60.0308004099,prodShadow,2015_Jun_29_1702,midd,
target,teke,stim/teke.wav,1,6,56,44,,,space,3.71885800362,,,000,jkw,60.0308004099,prodShadow,2015_Jun_29_1702,midd,
target,toko,stim/toko.wav,1,7,57,47,,,space,6.53512692451,,,000,jkw,60.0308004099,prodShadow,2015_Jun_29_1702,midd,
target,kaka,stim/kaka.wav,1,8,58,28,,,space,3.60165691376,,,000,jkw,60.0308004099,prodShadow,2015_Jun_29_1702,midd,
target,poko,stim/poko.wav,1,9,59,39,,,space,3.35184717178,,,000,jkw,60.0308004099,prodShadow,2015_Jun_29_1702,midd,
distractor,oka,stim/oka.wav,1,10,60,34,,,space,3.73464584351,,,000,jkw,60.0308004099,prodShadow,2015_Jun_29_1702,midd,
pname,bola,stim/bola.wav,1,11,61,7,,,space,3.7004301548,,,000,jkw,60.0308004099,prodShadow,2015_Jun_29_1702,midd,
target,kiki,stim/kiki.wav,1,12,62,30,,,space,3.50094604492,,,000,jkw,60.0308004099,prodShadow,2015_Jun_29_1702,midd,
pname,caca,stim/caca.wav,1,13,63,9,,,space,3.35053300858,,,000,jkw,60.0308004099,prodShadow,2015_Jun_29_1702,midd,
target,kuku,stim/kuku.wav,1,14,64,32,,,space,4.51813602448,,,000,jkw,60.0308004099,prodShadow,2015_Jun_29_1702,midd,
distractor,uta,stim/uta.wav,1,15,65,49,,,space,3.71855807304,,,000,jkw,60.0308004099,prodShadow,2015_Jun_29_1702,midd,
pname,palo,stim/palo.wav,1,16,66,36,,,space,3.36778402328,,,000,jkw,60.0308004099,prodShadow,2015_Jun_29_1702,midd,
target,piki,stim/piki.wav,1,17,67,38,,,space,3.63571405411,,,000,jkw,60.0308004099,prodShadow,2015_Jun_29_1702,midd,
target,taka,stim/taka.wav,1,18,68,43,,,space,3.41842603683,,,000,jkw,60.0308004099,prodShadow,2015_Jun_29_1702,midd,
pname,polo,stim/polo.wav,1,19,69,40,,,space,3.40128707886,,,000,jkw,60.0308004099,prodShadow,2015_Jun_29_1702,midd,
target,puku,stim/puku.wav,1,20,70,41,,,space,3.40189599991,,,000,jkw,60.0308004099,prodShadow,2015_Jun_29_1702,midd,
target,deke,stim/deke.wav,1,21,71,13,,,space,3.96758103371,,,000,jkw,60.0308004099,prodShadow,2015_Jun_29_1702,midd,
target,doko,stim/doko.wav,1,22,72,16,,,space,3.53402900696,,,000,jkw,60.0308004099,prodShadow,2015_Jun_29_1702,midd,
pname,gato,stim/gato.wav,1,23,73,21,,,space,3.78442502022,,,000,jkw,60.0308004099,prodShadow,2015_Jun_29_1702,midd,
distractor,ita,stim/ita.wav,1,24,74,27,,,space,3.46751499176,,,000,jkw,60.0308004099,prodShadow,2015_Jun_29_1702,midd,
target,geke,stim/geke.wav,1,25,75,22,,,space,3.61748290062,,,000,jkw,60.0308004099,prodShadow,2015_Jun_29_1702,midd,
target,tuku,stim/tuku.wav,1,26,76,48,,,space,3.16728401184,,,000,jkw,60.0308004099,prodShadow,2015_Jun_29_1702,midd,
target,koko,stim/koko.wav,1,27,77,31,,,space,3.56764006615,,,000,jkw,60.0308004099,prodShadow,2015_Jun_29_1702,midd,
target,duku,stim/duku.wav,1,28,78,17,,,space,3.66858506203,,,000,jkw,60.0308004099,prodShadow,2015_Jun_29_1702,midd,
target,guku,stim/guku.wav,1,29,79,26,,,space,3.53455400467,,,000,jkw,60.0308004099,prodShadow,2015_Jun_29_1702,midd,
pname,dado,stim/dado.wav,1,30,80,11,,,space,3.50003504753,,,000,jkw,60.0308004099,prodShadow,2015_Jun_29_1702,midd,
distractor,ada,stim/ada.wav,1,31,81,0,,,space,3.5678768158,,,000,jkw,60.0308004099,prodShadow,2015_Jun_29_1702,midd,
pname,coco,stim/coco.wav,1,32,82,10,,,space,4.95152783394,,,000,jkw,60.0308004099,prodShadow,2015_Jun_29_1702,midd,
target,biki,stim/biki.wav,1,33,83,5,,,space,3.68377304077,,,000,jkw,60.0308004099,prodShadow,2015_Jun_29_1702,midd,
target,baka,stim/baka.wav,1,34,84,2,,,space,4.91746902466,,,000,jkw,60.0308004099,prodShadow,2015_Jun_29_1702,midd,
pname,topo,stim/topo.wav,1,35,85,46,,,space,3.21803307533,,,000,jkw,60.0308004099,prodShadow,2015_Jun_29_1702,midd,
target,gaka,stim/gaka.wav,1,36,86,20,,,space,4.43500494957,,,000,jkw,60.0308004099,prodShadow,2015_Jun_29_1702,midd,
pname,taco,stim/taco.wav,1,37,87,42,,,space,4.30087685585,,,000,jkw,60.0308004099,prodShadow,2015_Jun_29_1702,midd,
pname,gota,stim/gota.wav,1,38,88,25,,,space,3.9025118351,,,000,jkw,60.0308004099,prodShadow,2015_Jun_29_1702,midd,
distractor,eda,stim/eda.wav,1,39,89,18,,,space,3.40094399452,,,000,jkw,60.0308004099,prodShadow,2015_Jun_29_1702,midd,
target,diki,stim/diki.wav,1,40,90,14,,,space,3.51759409904,,,000,jkw,60.0308004099,prodShadow,2015_Jun_29_1702,midd,
distractor,oba,stim/oba.wav,1,41,91,33,,,space,3.70162296295,,,000,jkw,60.0308004099,prodShadow,2015_Jun_29_1702,midd,
target,tiki,stim/tiki.wav,1,42,92,45,,,space,8.00137495995,,,000,jkw,60.0308004099,prodShadow,2015_Jun_29_1702,midd,
distractor,epa,stim/epa.wav,1,43,93,19,,,space,3.20028185844,,,000,jkw,60.0308004099,prodShadow,2015_Jun_29_1702,midd,
target,peke,stim/peke.wav,1,44,94,37,,,space,3.26740002632,,,000,jkw,60.0308004099,prodShadow,2015_Jun_29_1702,midd,
target,goko,stim/goko.wav,1,45,95,24,,,space,3.68377590179,,,000,jkw,60.0308004099,prodShadow,2015_Jun_29_1702,midd,
target,giki,stim/giki.wav,1,46,96,23,,,space,3.4336400032,,,000,jkw,60.0308004099,prodShadow,2015_Jun_29_1702,midd,
pname,dodo,stim/dodo.wav,1,47,97,15,,,space,3.4837770462,,,000,jkw,60.0308004099,prodShadow,2015_Jun_29_1702,midd,
target,daka,stim/daka.wav,1,48,98,12,,,space,3.65170097351,,,000,jkw,60.0308004099,prodShadow,2015_Jun_29_1702,midd,
target,keke,stim/keke.wav,1,49,99,29,,,space,3.61745095253,,,000,jkw,60.0308004099,prodShadow,2015_Jun_29_1702,midd,
pname,palo,stim/palo.wav,2,0,100,36,,,space,3.41786599159,,,000,jkw,60.0308004099,prodShadow,2015_Jun_29_1702,midd,
pname,dodo,stim/dodo.wav,2,1,101,15,,,space,3.40122294426,,,000,jkw,60.0308004099,prodShadow,2015_Jun_29_1702,midd,
target,beke,stim/beke.wav,2,2,102,4,,,space,3.83425498009,,,000,jkw,60.0308004099,prodShadow,2015_Jun_29_1702,midd,
target,taka,stim/taka.wav,2,3,103,43,,,space,3.50154685974,,,000,jkw,60.0308004099,prodShadow,2015_Jun_29_1702,midd,
target,piki,stim/piki.wav,2,4,104,38,,,space,3.33367395401,,,000,jkw,60.0308004099,prodShadow,2015_Jun_29_1702,midd,
distractor,eda,stim/eda.wav,2,5,105,18,,,space,3.5854871273,,,000,jkw,60.0308004099,prodShadow,2015_Jun_29_1702,midd,
target,tuku,stim/tuku.wav,2,6,106,48,,,space,3.48423194885,,,000,jkw,60.0308004099,prodShadow,2015_Jun_29_1702,midd,
pname,bola,stim/bola.wav,2,7,107,7,,,space,3.4670882225,,,000,jkw,60.0308004099,prodShadow,2015_Jun_29_1702,midd,
distractor,apa,stim/apa.wav,2,8,108,1,,,space,3.93465900421,,,000,jkw,60.0308004099,prodShadow,2015_Jun_29_1702,midd,
target,toko,stim/toko.wav,2,9,109,47,,,space,3.40112185478,,,000,jkw,60.0308004099,prodShadow,2015_Jun_29_1702,midd,
target,teke,stim/teke.wav,2,10,110,44,,,space,3.36740803719,,,000,jkw,60.0308004099,prodShadow,2015_Jun_29_1702,midd,
target,guku,stim/guku.wav,2,11,111,26,,,space,4.15132403374,,,000,jkw,60.0308004099,prodShadow,2015_Jun_29_1702,midd,
distractor,uta,stim/uta.wav,2,12,112,49,,,space,3.38393783569,,,000,jkw,60.0308004099,prodShadow,2015_Jun_29_1702,midd,
target,biki,stim/biki.wav,2,13,113,5,,,space,4.2681479454,,,000,jkw,60.0308004099,prodShadow,2015_Jun_29_1702,midd,
target,giki,stim/giki.wav,2,14,114,23,,,space,3.25061988831,,,000,jkw,60.0308004099,prodShadow,2015_Jun_29_1702,midd,
target,keke,stim/keke.wav,2,15,115,29,,,space,3.45033097267,,,000,jkw,60.0308004099,prodShadow,2015_Jun_29_1702,midd,
target,tiki,stim/tiki.wav,2,16,116,45,,,space,3.40128588676,,,000,jkw,60.0308004099,prodShadow,2015_Jun_29_1702,midd,
target,kaka,stim/kaka.wav,2,17,117,28,,,space,3.38316607475,,,000,jkw,60.0308004099,prodShadow,2015_Jun_29_1702,midd,
target,poko,stim/poko.wav,2,18,118,39,,,space,3.38545107841,,,000,jkw,60.0308004099,prodShadow,2015_Jun_29_1702,midd,
target,goko,stim/goko.wav,2,19,119,24,,,space,3.71751904488,,,000,jkw,60.0308004099,prodShadow,2015_Jun_29_1702,midd,
target,duku,stim/duku.wav,2,20,120,17,,,space,3.96747303009,,,000,jkw,60.0308004099,prodShadow,2015_Jun_29_1702,midd,
distractor,ita,stim/ita.wav,2,21,121,27,,,space,3.45094704628,,,000,jkw,60.0308004099,prodShadow,2015_Jun_29_1702,midd,
target,diki,stim/diki.wav,2,22,122,14,,,space,3.58431911469,,,000,jkw,60.0308004099,prodShadow,2015_Jun_29_1702,midd,
distractor,oba,stim/oba.wav,2,23,123,33,,,space,3.30196714401,,,000,jkw,60.0308004099,prodShadow,2015_Jun_29_1702,midd,
pname,gota,stim/gota.wav,2,24,124,25,,,space,3.71747303009,,,000,jkw,60.0308004099,prodShadow,2015_Jun_29_1702,midd,
target,buku,stim/buku.wav,2,25,125,8,,,space,3.70041513443,,,000,jkw,60.0308004099,prodShadow,2015_Jun_29_1702,midd,
target,kuku,stim/kuku.wav,2,26,126,32,,,space,3.43458795547,,,000,jkw,60.0308004099,prodShadow,2015_Jun_29_1702,midd,
target,geke,stim/geke.wav,2,27,127,22,,,space,3.53403306007,,,000,jkw,60.0308004099,prodShadow,2015_Jun_29_1702,midd,
target,gaka,stim/gaka.wav,2,28,128,20,,,space,3.41708612442,,,000,jkw,60.0308004099,prodShadow,2015_Jun_29_1702,midd,
pname,bala,stim/bala.wav,2,29,129,3,,,space,4.21856999397,,,000,jkw,60.0308004099,prodShadow,2015_Jun_29_1702,midd,
target,peke,stim/peke.wav,2,30,130,37,,,space,3.25139498711,,,000,jkw,60.0308004099,prodShadow,2015_Jun_29_1702,midd,
target,deke,stim/deke.wav,2,31,131,13,,,space,4.06857585907,,,000,jkw,60.0308004099,prodShadow,2015_Jun_29_1702,midd,
pname,caca,stim/caca.wav,2,32,132,9,,,space,3.45026898384,,,000,jkw,60.0308004099,prodShadow,2015_Jun_29_1702,midd,
target,boko,stim/boko.wav,2,33,133,6,,,space,3.68499398232,,,000,jkw,60.0308004099,prodShadow,2015_Jun_29_1702,midd,
distractor,ada,stim/ada.wav,2,34,134,0,,,space,3.71725106239,,,000,jkw,60.0308004099,prodShadow,2015_Jun_29_1702,midd,
target,puku,stim/puku.wav,2,35,135,41,,,space,3.61758804321,,,000,jkw,60.0308004099,prodShadow,2015_Jun_29_1702,midd,
distractor,epa,stim/epa.wav,2,36,136,19,,,space,3.25185894966,,,000,jkw,60.0308004099,prodShadow,2015_Jun_29_1702,midd,
pname,gato,stim/gato.wav,2,37,137,21,,,space,3.73381590843,,,000,jkw,60.0308004099,prodShadow,2015_Jun_29_1702,midd,
target,daka,stim/daka.wav,2,38,138,12,,,space,3.61734604836,,,000,jkw,60.0308004099,prodShadow,2015_Jun_29_1702,midd,
pname,taco,stim/taco.wav,2,39,139,42,,,space,3.58463692665,,,000,jkw,60.0308004099,prodShadow,2015_Jun_29_1702,midd,
target,koko,stim/koko.wav,2,40,140,31,,,space,3.5177719593,,,000,jkw,60.0308004099,prodShadow,2015_Jun_29_1702,midd,
pname,polo,stim/polo.wav,2,41,141,40,,,space,3.18473291397,,,000,jkw,60.0308004099,prodShadow,2015_Jun_29_1702,midd,
target,paka,stim/paka.wav,2,42,142,35,,,space,6.40040802956,,,000,jkw,60.0308004099,prodShadow,2015_Jun_29_1702,midd,
pname,dado,stim/dado.wav,2,43,143,11,,,space,3.38447499275,,,000,jkw,60.0308004099,prodShadow,2015_Jun_29_1702,midd,
target,doko,stim/doko.wav,2,44,144,16,,,space,3.53403711319,,,000,jkw,60.0308004099,prodShadow,2015_Jun_29_1702,midd,
target,kiki,stim/kiki.wav,2,45,145,30,,,space,3.43400001526,,,000,jkw,60.0308004099,prodShadow,2015_Jun_29_1702,midd,
distractor,oka,stim/oka.wav,2,46,146,34,,,space,3.65074706078,,,000,jkw,60.0308004099,prodShadow,2015_Jun_29_1702,midd,
target,baka,stim/baka.wav,2,47,147,2,,,space,3.85037612915,,,000,jkw,60.0308004099,prodShadow,2015_Jun_29_1702,midd,
pname,topo,stim/topo.wav,2,48,148,46,,,space,4.08568406105,,,000,jkw,60.0308004099,prodShadow,2015_Jun_29_1702,midd,
pname,coco,stim/coco.wav,2,49,149,10,,,space,3.46682095528,,,000,jkw,60.0308004099,prodShadow,2015_Jun_29_1702,midd,
,,,,,,,,,,,space,53.7404799461,000,jkw,60.0308004099,prodShadow,2015_Jun_29_1702,midd,
