status,text,stim,trials.thisRepN,trials.thisTrialN,trials.thisN,trials.thisIndex,key_resp_3.keys,key_resp_3.rt,key_resp_2.keys,key_resp_2.rt,key_resp_4.keys,key_resp_4.rt,session,participant,frameRate,expName,date,condition,
,,,,,,,space,1.55182003975,,,,,004,mav,59.4462853725,prodShadow,2015_Jul_26_1421,midd,
target,duku,stim/duku.wav,0,0,0,17,,,space,2.06611013412,,,004,mav,59.4462853725,prodShadow,2015_Jul_26_1421,midd,
target,paka,stim/paka.wav,0,1,1,35,,,space,1.0011408329,,,004,mav,59.4462853725,prodShadow,2015_Jul_26_1421,midd,
target,piki,stim/piki.wav,0,2,2,38,,,space,0.949898958206,,,004,mav,59.4462853725,prodShadow,2015_Jul_26_1421,midd,
target,biki,stim/biki.wav,0,3,3,5,,,space,1.08583688736,,,004,mav,59.4462853725,prodShadow,2015_Jul_26_1421,midd,
target,deke,stim/deke.wav,0,4,4,13,,,space,1.10141801834,,,004,mav,59.4462853725,prodShadow,2015_Jul_26_1421,midd,
target,giki,stim/giki.wav,0,5,5,23,,,space,0.835484027863,,,004,mav,59.4462853725,prodShadow,2015_Jul_26_1421,midd,
target,buku,stim/buku.wav,0,6,6,8,,,space,1.03268313408,,,004,mav,59.4462853725,prodShadow,2015_Jul_26_1421,midd,
target,beke,stim/beke.wav,0,7,7,4,,,space,1.18354701996,,,004,mav,59.4462853725,prodShadow,2015_Jul_26_1421,midd,
target,guku,stim/guku.wav,0,8,8,26,,,space,1.20227193832,,,004,mav,59.4462853725,prodShadow,2015_Jul_26_1421,midd,
distractor,eda,stim/eda.wav,0,9,9,18,,,space,1.06739592552,,,004,mav,59.4462853725,prodShadow,2015_Jul_26_1421,midd,
pname,gota,stim/gota.wav,0,10,10,25,,,space,1.10077404976,,,004,mav,59.4462853725,prodShadow,2015_Jul_26_1421,midd,
target,toko,stim/toko.wav,0,11,11,47,,,space,1.01841187477,,,004,mav,59.4462853725,prodShadow,2015_Jul_26_1421,midd,
pname,topo,stim/topo.wav,0,12,12,46,,,space,0.933513879776,,,004,mav,59.4462853725,prodShadow,2015_Jul_26_1421,midd,
target,teke,stim/teke.wav,0,13,13,44,,,space,0.983890771866,,,004,mav,59.4462853725,prodShadow,2015_Jul_26_1421,midd,
target,keke,stim/keke.wav,0,14,14,29,,,space,0.834587097168,,,004,mav,59.4462853725,prodShadow,2015_Jul_26_1421,midd,
distractor,apa,stim/apa.wav,0,15,15,1,,,space,0.849982976913,,,004,mav,59.4462853725,prodShadow,2015_Jul_26_1421,midd,
pname,bola,stim/bola.wav,0,16,16,7,,,space,1.1664659977,,,004,mav,59.4462853725,prodShadow,2015_Jul_26_1421,midd,
target,baka,stim/baka.wav,0,17,17,2,,,space,1.1013610363,,,004,mav,59.4462853725,prodShadow,2015_Jul_26_1421,midd,
target,geke,stim/geke.wav,0,18,18,22,,,space,1.05190014839,,,004,mav,59.4462853725,prodShadow,2015_Jul_26_1421,midd,
pname,dodo,stim/dodo.wav,0,19,19,15,,,space,1.03356599808,,,004,mav,59.4462853725,prodShadow,2015_Jul_26_1421,midd,
pname,polo,stim/polo.wav,0,20,20,40,,,space,0.883487224579,,,004,mav,59.4462853725,prodShadow,2015_Jul_26_1421,midd,
target,tuku,stim/tuku.wav,0,21,21,48,,,space,0.949953079224,,,004,mav,59.4462853725,prodShadow,2015_Jul_26_1421,midd,
target,boko,stim/boko.wav,0,22,22,6,,,space,1.15064096451,,,004,mav,59.4462853725,prodShadow,2015_Jul_26_1421,midd,
pname,gato,stim/gato.wav,0,23,23,21,,,space,1.38336801529,,,004,mav,59.4462853725,prodShadow,2015_Jul_26_1421,midd,
target,doko,stim/doko.wav,0,24,24,16,,,space,1.18415188789,,,004,mav,59.4462853725,prodShadow,2015_Jul_26_1421,midd,
pname,taco,stim/taco.wav,0,25,25,42,,,space,1.20005202293,,,004,mav,59.4462853725,prodShadow,2015_Jul_26_1421,midd,
target,kuku,stim/kuku.wav,0,26,26,32,,,space,1.08385896683,,,004,mav,59.4462853725,prodShadow,2015_Jul_26_1421,midd,
target,diki,stim/diki.wav,0,27,27,14,,,space,1.10069799423,,,004,mav,59.4462853725,prodShadow,2015_Jul_26_1421,midd,
distractor,oba,stim/oba.wav,0,28,28,33,,,space,1.05005216599,,,004,mav,59.4462853725,prodShadow,2015_Jul_26_1421,midd,
target,goko,stim/goko.wav,0,29,29,24,,,space,1.15095996857,,,004,mav,59.4462853725,prodShadow,2015_Jul_26_1421,midd,
target,gaka,stim/gaka.wav,0,30,30,20,,,space,1.08391094208,,,004,mav,59.4462853725,prodShadow,2015_Jul_26_1421,midd,
target,peke,stim/peke.wav,0,31,31,37,,,space,0.9348320961,,,004,mav,59.4462853725,prodShadow,2015_Jul_26_1421,midd,
target,kaka,stim/kaka.wav,0,32,32,28,,,space,1.0496840477,,,004,mav,59.4462853725,prodShadow,2015_Jul_26_1421,midd,
distractor,oka,stim/oka.wav,0,33,33,34,,,space,1.18323707581,,,004,mav,59.4462853725,prodShadow,2015_Jul_26_1421,midd,
pname,bala,stim/bala.wav,0,34,34,3,,,space,1.08489608765,,,004,mav,59.4462853725,prodShadow,2015_Jul_26_1421,midd,
target,koko,stim/koko.wav,0,35,35,31,,,space,1.16683411598,,,004,mav,59.4462853725,prodShadow,2015_Jul_26_1421,midd,
target,tiki,stim/tiki.wav,0,36,36,45,,,space,0.917531013489,,,004,mav,59.4462853725,prodShadow,2015_Jul_26_1421,midd,
target,taka,stim/taka.wav,0,37,37,43,,,space,0.950257062912,,,004,mav,59.4462853725,prodShadow,2015_Jul_26_1421,midd,
pname,caca,stim/caca.wav,0,38,38,9,,,space,0.950726985931,,,004,mav,59.4462853725,prodShadow,2015_Jul_26_1421,midd,
distractor,ada,stim/ada.wav,0,39,39,0,,,space,1.06746697426,,,004,mav,59.4462853725,prodShadow,2015_Jul_26_1421,midd,
target,daka,stim/daka.wav,0,40,40,12,,,space,1.03366613388,,,004,mav,59.4462853725,prodShadow,2015_Jul_26_1421,midd,
distractor,epa,stim/epa.wav,0,41,41,19,,,space,0.934034109116,,,004,mav,59.4462853725,prodShadow,2015_Jul_26_1421,midd,
target,poko,stim/poko.wav,0,42,42,39,,,space,0.817547798157,,,004,mav,59.4462853725,prodShadow,2015_Jul_26_1421,midd,
distractor,ita,stim/ita.wav,0,43,43,27,,,space,0.967658996582,,,004,mav,59.4462853725,prodShadow,2015_Jul_26_1421,midd,
distractor,uta,stim/uta.wav,0,44,44,49,,,space,1.0175549984,,,004,mav,59.4462853725,prodShadow,2015_Jul_26_1421,midd,
pname,palo,stim/palo.wav,0,45,45,36,,,space,1.06779789925,,,004,mav,59.4462853725,prodShadow,2015_Jul_26_1421,midd,
pname,coco,stim/coco.wav,0,46,46,10,,,space,1.18451809883,,,004,mav,59.4462853725,prodShadow,2015_Jul_26_1421,midd,
target,puku,stim/puku.wav,0,47,47,41,,,space,1.2010550499,,,004,mav,59.4462853725,prodShadow,2015_Jul_26_1421,midd,
pname,dado,stim/dado.wav,0,48,48,11,,,space,1.25069618225,,,004,mav,59.4462853725,prodShadow,2015_Jul_26_1421,midd,
target,kiki,stim/kiki.wav,0,49,49,30,,,space,1.01718592644,,,004,mav,59.4462853725,prodShadow,2015_Jul_26_1421,midd,
pname,palo,stim/palo.wav,1,0,50,36,,,space,1.06750607491,,,004,mav,59.4462853725,prodShadow,2015_Jul_26_1421,midd,
target,deke,stim/deke.wav,1,1,51,13,,,space,1.28454089165,,,004,mav,59.4462853725,prodShadow,2015_Jul_26_1421,midd,
target,diki,stim/diki.wav,1,2,52,14,,,space,0.917166948318,,,004,mav,59.4462853725,prodShadow,2015_Jul_26_1421,midd,
target,taka,stim/taka.wav,1,3,53,43,,,space,1.05097484589,,,004,mav,59.4462853725,prodShadow,2015_Jul_26_1421,midd,
distractor,ita,stim/ita.wav,1,4,54,27,,,space,0.851008176804,,,004,mav,59.4462853725,prodShadow,2015_Jul_26_1421,midd,
pname,gato,stim/gato.wav,1,5,55,21,,,space,1.30140113831,,,004,mav,59.4462853725,prodShadow,2015_Jul_26_1421,midd,
target,doko,stim/doko.wav,1,6,56,16,,,space,1.10132002831,,,004,mav,59.4462853725,prodShadow,2015_Jul_26_1421,midd,
target,puku,stim/puku.wav,1,7,57,41,,,space,0.934073925018,,,004,mav,59.4462853725,prodShadow,2015_Jul_26_1421,midd,
pname,polo,stim/polo.wav,1,8,58,40,,,space,1.10077786446,,,004,mav,59.4462853725,prodShadow,2015_Jul_26_1421,midd,
distractor,ada,stim/ada.wav,1,9,59,0,,,space,1.13359594345,,,004,mav,59.4462853725,prodShadow,2015_Jul_26_1421,midd,
target,geke,stim/geke.wav,1,10,60,22,,,space,0.983598947525,,,004,mav,59.4462853725,prodShadow,2015_Jul_26_1421,midd,
target,paka,stim/paka.wav,1,11,61,35,,,space,0.918308973312,,,004,mav,59.4462853725,prodShadow,2015_Jul_26_1421,midd,
distractor,oka,stim/oka.wav,1,12,62,34,,,space,1.10077905655,,,004,mav,59.4462853725,prodShadow,2015_Jul_26_1421,midd,
pname,dado,stim/dado.wav,1,13,63,11,,,space,1.08475399017,,,004,mav,59.4462853725,prodShadow,2015_Jul_26_1421,midd,
target,poko,stim/poko.wav,1,14,64,39,,,space,0.868144035339,,,004,mav,59.4462853725,prodShadow,2015_Jul_26_1421,midd,
distractor,apa,stim/apa.wav,1,15,65,1,,,space,0.934713840485,,,004,mav,59.4462853725,prodShadow,2015_Jul_26_1421,midd,
target,gaka,stim/gaka.wav,1,16,66,20,,,space,1.11730504036,,,004,mav,59.4462853725,prodShadow,2015_Jul_26_1421,midd,
target,goko,stim/goko.wav,1,17,67,24,,,space,1.20088005066,,,004,mav,59.4462853725,prodShadow,2015_Jul_26_1421,midd,
distractor,eda,stim/eda.wav,1,18,68,18,,,space,1.13275408745,,,004,mav,59.4462853725,prodShadow,2015_Jul_26_1421,midd,
target,keke,stim/keke.wav,1,19,69,29,,,space,1.01780796051,,,004,mav,59.4462853725,prodShadow,2015_Jul_26_1421,midd,
pname,dodo,stim/dodo.wav,1,20,70,15,,,space,1.0844681263,,,004,mav,59.4462853725,prodShadow,2015_Jul_26_1421,midd,
target,piki,stim/piki.wav,1,21,71,38,,,space,0.951016902924,,,004,mav,59.4462853725,prodShadow,2015_Jul_26_1421,midd,
target,peke,stim/peke.wav,1,22,72,37,,,space,0.91819691658,,,004,mav,59.4462853725,prodShadow,2015_Jul_26_1421,midd,
target,tiki,stim/tiki.wav,1,23,73,45,,,space,0.866796016693,,,004,mav,59.4462853725,prodShadow,2015_Jul_26_1421,midd,
target,kuku,stim/kuku.wav,1,24,74,32,,,space,0.999799013138,,,004,mav,59.4462853725,prodShadow,2015_Jul_26_1421,midd,
target,koko,stim/koko.wav,1,25,75,31,,,space,1.04984521866,,,004,mav,59.4462853725,prodShadow,2015_Jul_26_1421,midd,
pname,taco,stim/taco.wav,1,26,76,42,,,space,1.00025701523,,,004,mav,59.4462853725,prodShadow,2015_Jul_26_1421,midd,
target,boko,stim/boko.wav,1,27,77,6,,,space,1.11772084236,,,004,mav,59.4462853725,prodShadow,2015_Jul_26_1421,midd,
pname,bala,stim/bala.wav,1,28,78,3,,,space,1.0664229393,,,004,mav,59.4462853725,prodShadow,2015_Jul_26_1421,midd,
target,kiki,stim/kiki.wav,1,29,79,30,,,space,0.917012929916,,,004,mav,59.4462853725,prodShadow,2015_Jul_26_1421,midd,
target,kaka,stim/kaka.wav,1,30,80,28,,,space,1.05010890961,,,004,mav,59.4462853725,prodShadow,2015_Jul_26_1421,midd,
target,biki,stim/biki.wav,1,31,81,5,,,space,1.23355102539,,,004,mav,59.4462853725,prodShadow,2015_Jul_26_1421,midd,
pname,caca,stim/caca.wav,1,32,82,9,,,space,0.88471698761,,,004,mav,59.4462853725,prodShadow,2015_Jul_26_1421,midd,
target,duku,stim/duku.wav,1,33,83,17,,,space,1.05156087875,,,004,mav,59.4462853725,prodShadow,2015_Jul_26_1421,midd,
target,buku,stim/buku.wav,1,34,84,8,,,space,1.01742696762,,,004,mav,59.4462853725,prodShadow,2015_Jul_26_1421,midd,
pname,gota,stim/gota.wav,1,35,85,25,,,space,1.16729784012,,,004,mav,59.4462853725,prodShadow,2015_Jul_26_1421,midd,
pname,bola,stim/bola.wav,1,36,86,7,,,space,1.20037198067,,,004,mav,59.4462853725,prodShadow,2015_Jul_26_1421,midd,
distractor,uta,stim/uta.wav,1,37,87,49,,,space,0.817341804504,,,004,mav,59.4462853725,prodShadow,2015_Jul_26_1421,midd,
target,daka,stim/daka.wav,1,38,88,12,,,space,1.08362698555,,,004,mav,59.4462853725,prodShadow,2015_Jul_26_1421,midd,
pname,coco,stim/coco.wav,1,39,89,10,,,space,1.21783089638,,,004,mav,59.4462853725,prodShadow,2015_Jul_26_1421,midd,
target,tuku,stim/tuku.wav,1,40,90,48,,,space,1.18488788605,,,004,mav,59.4462853725,prodShadow,2015_Jul_26_1421,midd,
target,teke,stim/teke.wav,1,41,91,44,,,space,1.13405394554,,,004,mav,59.4462853725,prodShadow,2015_Jul_26_1421,midd,
target,beke,stim/beke.wav,1,42,92,4,,,space,1.40161085129,,,004,mav,59.4462853725,prodShadow,2015_Jul_26_1421,midd,
target,guku,stim/guku.wav,1,43,93,26,,,space,1.21718788147,,,004,mav,59.4462853725,prodShadow,2015_Jul_26_1421,midd,
target,toko,stim/toko.wav,1,44,94,47,,,space,1.05080795288,,,004,mav,59.4462853725,prodShadow,2015_Jul_26_1421,midd,
target,baka,stim/baka.wav,1,45,95,2,,,space,1.16728782654,,,004,mav,59.4462853725,prodShadow,2015_Jul_26_1421,midd,
pname,topo,stim/topo.wav,1,46,96,46,,,space,0.984157085419,,,004,mav,59.4462853725,prodShadow,2015_Jul_26_1421,midd,
target,giki,stim/giki.wav,1,47,97,23,,,space,1.00053501129,,,004,mav,59.4462853725,prodShadow,2015_Jul_26_1421,midd,
distractor,oba,stim/oba.wav,1,48,98,33,,,space,1.01726984978,,,004,mav,59.4462853725,prodShadow,2015_Jul_26_1421,midd,
distractor,epa,stim/epa.wav,1,49,99,19,,,space,0.93537402153,,,004,mav,59.4462853725,prodShadow,2015_Jul_26_1421,midd,
pname,topo,stim/topo.wav,2,0,100,46,,,space,0.916723012924,,,004,mav,59.4462853725,prodShadow,2015_Jul_26_1421,midd,
pname,dodo,stim/dodo.wav,2,1,101,15,,,space,1.03401303291,,,004,mav,59.4462853725,prodShadow,2015_Jul_26_1421,midd,
target,teke,stim/teke.wav,2,2,102,44,,,space,0.799951076508,,,004,mav,59.4462853725,prodShadow,2015_Jul_26_1421,midd,
pname,gato,stim/gato.wav,2,3,103,21,,,space,1.28368115425,,,004,mav,59.4462853725,prodShadow,2015_Jul_26_1421,midd,
target,boko,stim/boko.wav,2,4,104,6,,,space,1.11743187904,,,004,mav,59.4462853725,prodShadow,2015_Jul_26_1421,midd,
target,kaka,stim/kaka.wav,2,5,105,28,,,space,1.10134005547,,,004,mav,59.4462853725,prodShadow,2015_Jul_26_1421,midd,
target,kiki,stim/kiki.wav,2,6,106,30,,,space,1.18407607079,,,004,mav,59.4462853725,prodShadow,2015_Jul_26_1421,midd,
pname,polo,stim/polo.wav,2,7,107,40,,,space,1.06807899475,,,004,mav,59.4462853725,prodShadow,2015_Jul_26_1421,midd,
target,taka,stim/taka.wav,2,8,108,43,,,space,1.10071706772,,,004,mav,59.4462853725,prodShadow,2015_Jul_26_1421,midd,
target,tiki,stim/tiki.wav,2,9,109,45,,,space,0.933951854706,,,004,mav,59.4462853725,prodShadow,2015_Jul_26_1421,midd,
pname,bala,stim/bala.wav,2,10,110,3,,,space,1.03448796272,,,004,mav,59.4462853725,prodShadow,2015_Jul_26_1421,midd,
pname,palo,stim/palo.wav,2,11,111,36,,,space,0.984335899353,,,004,mav,59.4462853725,prodShadow,2015_Jul_26_1421,midd,
distractor,apa,stim/apa.wav,2,12,112,1,,,space,0.917414903641,,,004,mav,59.4462853725,prodShadow,2015_Jul_26_1421,midd,
target,duku,stim/duku.wav,2,13,113,17,,,space,1.10011196136,,,004,mav,59.4462853725,prodShadow,2015_Jul_26_1421,midd,
distractor,ada,stim/ada.wav,2,14,114,0,,,space,1.05108499527,,,004,mav,59.4462853725,prodShadow,2015_Jul_26_1421,midd,
target,toko,stim/toko.wav,2,15,115,47,,,space,0.883886098862,,,004,mav,59.4462853725,prodShadow,2015_Jul_26_1421,midd,
pname,bola,stim/bola.wav,2,16,116,7,,,space,1.13441991806,,,004,mav,59.4462853725,prodShadow,2015_Jul_26_1421,midd,
target,buku,stim/buku.wav,2,17,117,8,,,space,1.21760296822,,,004,mav,59.4462853725,prodShadow,2015_Jul_26_1421,midd,
target,peke,stim/peke.wav,2,18,118,37,,,space,0.933216094971,,,004,mav,59.4462853725,prodShadow,2015_Jul_26_1421,midd,
target,guku,stim/guku.wav,2,19,119,26,,,space,1.08413791656,,,004,mav,59.4462853725,prodShadow,2015_Jul_26_1421,midd,
target,biki,stim/biki.wav,2,20,120,5,,,space,1.11818408966,,,004,mav,59.4462853725,prodShadow,2015_Jul_26_1421,midd,
distractor,epa,stim/epa.wav,2,21,121,19,,,space,0.834996938705,,,004,mav,59.4462853725,prodShadow,2015_Jul_26_1421,midd,
target,kuku,stim/kuku.wav,2,22,122,32,,,space,0.94953417778,,,004,mav,59.4462853725,prodShadow,2015_Jul_26_1421,midd,
target,geke,stim/geke.wav,2,23,123,22,,,space,1.03445506096,,,004,mav,59.4462853725,prodShadow,2015_Jul_26_1421,midd,
target,piki,stim/piki.wav,2,24,124,38,,,space,0.800418138504,,,004,mav,59.4462853725,prodShadow,2015_Jul_26_1421,midd,
target,goko,stim/goko.wav,2,25,125,24,,,space,1.0175819397,,,004,mav,59.4462853725,prodShadow,2015_Jul_26_1421,midd,
target,puku,stim/puku.wav,2,26,126,41,,,space,0.983735084534,,,004,mav,59.4462853725,prodShadow,2015_Jul_26_1421,midd,
pname,coco,stim/coco.wav,2,27,127,10,,,space,1.0498111248,,,004,mav,59.4462853725,prodShadow,2015_Jul_26_1421,midd,
target,poko,stim/poko.wav,2,28,128,39,,,space,0.967396020889,,,004,mav,59.4462853725,prodShadow,2015_Jul_26_1421,midd,
pname,gota,stim/gota.wav,2,29,129,25,,,space,1.05198693275,,,004,mav,59.4462853725,prodShadow,2015_Jul_26_1421,midd,
target,doko,stim/doko.wav,2,30,130,16,,,space,1.10071182251,,,004,mav,59.4462853725,prodShadow,2015_Jul_26_1421,midd,
distractor,oba,stim/oba.wav,2,31,131,33,,,space,1.0685031414,,,004,mav,59.4462853725,prodShadow,2015_Jul_26_1421,midd,
target,baka,stim/baka.wav,2,32,132,2,,,space,1.01787304878,,,004,mav,59.4462853725,prodShadow,2015_Jul_26_1421,midd,
pname,caca,stim/caca.wav,2,33,133,9,,,space,0.783717870712,,,004,mav,59.4462853725,prodShadow,2015_Jul_26_1421,midd,
pname,dado,stim/dado.wav,2,34,134,11,,,space,1.15049886703,,,004,mav,59.4462853725,prodShadow,2015_Jul_26_1421,midd,
target,daka,stim/daka.wav,2,35,135,12,,,space,0.933962106705,,,004,mav,59.4462853725,prodShadow,2015_Jul_26_1421,midd,
distractor,uta,stim/uta.wav,2,36,136,49,,,space,0.967442989349,,,004,mav,59.4462853725,prodShadow,2015_Jul_26_1421,midd,
target,gaka,stim/gaka.wav,2,37,137,20,,,space,0.934261798859,,,004,mav,59.4462853725,prodShadow,2015_Jul_26_1421,midd,
target,paka,stim/paka.wav,2,38,138,35,,,space,0.901583909988,,,004,mav,59.4462853725,prodShadow,2015_Jul_26_1421,midd,
distractor,oka,stim/oka.wav,2,39,139,34,,,space,0.917163848877,,,004,mav,59.4462853725,prodShadow,2015_Jul_26_1421,midd,
distractor,ita,stim/ita.wav,2,40,140,27,,,space,1.00162601471,,,004,mav,59.4462853725,prodShadow,2015_Jul_26_1421,midd,
target,koko,stim/koko.wav,2,41,141,31,,,space,1.01739597321,,,004,mav,59.4462853725,prodShadow,2015_Jul_26_1421,midd,
target,keke,stim/keke.wav,2,42,142,29,,,space,0.833870887756,,,004,mav,59.4462853725,prodShadow,2015_Jul_26_1421,midd,
target,diki,stim/diki.wav,2,43,143,14,,,space,0.950580120087,,,004,mav,59.4462853725,prodShadow,2015_Jul_26_1421,midd,
target,tuku,stim/tuku.wav,2,44,144,48,,,space,1.08449697495,,,004,mav,59.4462853725,prodShadow,2015_Jul_26_1421,midd,
distractor,eda,stim/eda.wav,2,45,145,18,,,space,1.0170249939,,,004,mav,59.4462853725,prodShadow,2015_Jul_26_1421,midd,
target,beke,stim/beke.wav,2,46,146,4,,,space,1.33415007591,,,004,mav,59.4462853725,prodShadow,2015_Jul_26_1421,midd,
pname,taco,stim/taco.wav,2,47,147,42,,,space,1.06755304337,,,004,mav,59.4462853725,prodShadow,2015_Jul_26_1421,midd,
target,deke,stim/deke.wav,2,48,148,13,,,space,1.15015006065,,,004,mav,59.4462853725,prodShadow,2015_Jul_26_1421,midd,
target,giki,stim/giki.wav,2,49,149,23,,,space,1.08385491371,,,004,mav,59.4462853725,prodShadow,2015_Jul_26_1421,midd,
,,,,,,,,,,,space,22.4365141392,004,mav,59.4462853725,prodShadow,2015_Jul_26_1421,midd,
