status,text,stim,trials.thisRepN,trials.thisTrialN,trials.thisN,trials.thisIndex,key_resp_3.keys,key_resp_3.rt,key_resp_2.keys,key_resp_2.rt,key_resp_4.keys,key_resp_4.rt,session,participant,frameRate,expName,date,condition,
,,,,,,,space,6.55126214027,,,,,000,mav,60.2489650397,prodShadow,2015_Jun_29_1615,midd,
pname,coco,stim/coco.wav,0,0,0,10,,,space,5.75133323669,,,000,mav,60.2489650397,prodShadow,2015_Jun_29_1615,midd,
pname,gota,stim/gota.wav,0,1,1,25,,,space,3.71864199638,,,000,mav,60.2489650397,prodShadow,2015_Jun_29_1615,midd,
target,poko,stim/poko.wav,0,2,2,39,,,space,2.98432612419,,,000,mav,60.2489650397,prodShadow,2015_Jun_29_1615,midd,
pname,topo,stim/topo.wav,0,3,3,46,,,space,2.88399791718,,,000,mav,60.2489650397,prodShadow,2015_Jun_29_1615,midd,
distractor,eda,stim/eda.wav,0,4,4,18,,,space,3.15049004555,,,000,mav,60.2489650397,prodShadow,2015_Jun_29_1615,midd,
target,daka,stim/daka.wav,0,5,5,12,,,space,3.41729092598,,,000,mav,60.2489650397,prodShadow,2015_Jun_29_1615,midd,
target,kaka,stim/kaka.wav,0,6,6,28,,,space,4.00124907494,,,000,mav,60.2489650397,prodShadow,2015_Jun_29_1615,midd,
target,kuku,stim/kuku.wav,0,7,7,32,,,space,3.76820588112,,,000,mav,60.2489650397,prodShadow,2015_Jun_29_1615,midd,
target,toko,stim/toko.wav,0,8,8,47,,,space,3.45073485374,,,000,mav,60.2489650397,prodShadow,2015_Jun_29_1615,midd,
target,taka,stim/taka.wav,0,9,9,43,,,space,3.28472995758,,,000,mav,60.2489650397,prodShadow,2015_Jun_29_1615,midd,
target,beke,stim/beke.wav,0,10,10,4,,,space,3.60079216957,,,000,mav,60.2489650397,prodShadow,2015_Jun_29_1615,midd,
target,tuku,stim/tuku.wav,0,11,11,48,,,space,2.88436198235,,,000,mav,60.2489650397,prodShadow,2015_Jun_29_1615,midd,
target,guku,stim/guku.wav,0,12,12,26,,,space,2.76782417297,,,000,mav,60.2489650397,prodShadow,2015_Jun_29_1615,midd,
pname,gato,stim/gato.wav,0,13,13,21,,,space,3.28359293938,,,000,mav,60.2489650397,prodShadow,2015_Jun_29_1615,midd,
pname,palo,stim/palo.wav,0,14,14,36,,,space,3.01804304123,,,000,mav,60.2489650397,prodShadow,2015_Jun_29_1615,midd,
pname,caca,stim/caca.wav,0,15,15,9,,,space,2.70137000084,,,000,mav,60.2489650397,prodShadow,2015_Jun_29_1615,midd,
target,baka,stim/baka.wav,0,16,16,2,,,space,3.31751298904,,,000,mav,60.2489650397,prodShadow,2015_Jun_29_1615,midd,
target,boko,stim/boko.wav,0,17,17,6,,,space,3.31764101982,,,000,mav,60.2489650397,prodShadow,2015_Jun_29_1615,midd,
target,deke,stim/deke.wav,0,18,18,13,,,space,3.56770801544,,,000,mav,60.2489650397,prodShadow,2015_Jun_29_1615,midd,
target,koko,stim/koko.wav,0,19,19,31,,,space,3.16734194756,,,000,mav,60.2489650397,prodShadow,2015_Jun_29_1615,midd,
distractor,uta,stim/uta.wav,0,20,20,49,,,space,3.10149002075,,,000,mav,60.2489650397,prodShadow,2015_Jun_29_1615,midd,
target,goko,stim/goko.wav,0,21,21,24,,,space,3.06742691994,,,000,mav,60.2489650397,prodShadow,2015_Jun_29_1615,midd,
distractor,oba,stim/oba.wav,0,22,22,33,,,space,2.73452186584,,,000,mav,60.2489650397,prodShadow,2015_Jun_29_1615,midd,
target,doko,stim/doko.wav,0,23,23,16,,,space,3.1670460701,,,000,mav,60.2489650397,prodShadow,2015_Jun_29_1615,midd,
distractor,ita,stim/ita.wav,0,24,24,27,,,space,3.28319907188,,,000,mav,60.2489650397,prodShadow,2015_Jun_29_1615,midd,
target,piki,stim/piki.wav,0,25,25,38,,,space,3.0350317955,,,000,mav,60.2489650397,prodShadow,2015_Jun_29_1615,midd,
pname,dodo,stim/dodo.wav,0,26,26,15,,,space,3.23424315453,,,000,mav,60.2489650397,prodShadow,2015_Jun_29_1615,midd,
pname,taco,stim/taco.wav,0,27,27,42,,,space,3.06819105148,,,000,mav,60.2489650397,prodShadow,2015_Jun_29_1615,midd,
target,biki,stim/biki.wav,0,28,28,5,,,space,3.26691293716,,,000,mav,60.2489650397,prodShadow,2015_Jun_29_1615,midd,
pname,polo,stim/polo.wav,0,29,29,40,,,space,3.08539319038,,,000,mav,60.2489650397,prodShadow,2015_Jun_29_1615,midd,
target,geke,stim/geke.wav,0,30,30,22,,,space,2.96778416634,,,000,mav,60.2489650397,prodShadow,2015_Jun_29_1615,midd,
pname,bola,stim/bola.wav,0,31,31,7,,,space,2.96736097336,,,000,mav,60.2489650397,prodShadow,2015_Jun_29_1615,midd,
distractor,epa,stim/epa.wav,0,32,32,19,,,space,2.78403401375,,,000,mav,60.2489650397,prodShadow,2015_Jun_29_1615,midd,
target,tiki,stim/tiki.wav,0,33,33,45,,,space,2.83461618423,,,000,mav,60.2489650397,prodShadow,2015_Jun_29_1615,midd,
target,giki,stim/giki.wav,0,34,34,23,,,space,2.66744709015,,,000,mav,60.2489650397,prodShadow,2015_Jun_29_1615,midd,
target,keke,stim/keke.wav,0,35,35,29,,,space,2.93397688866,,,000,mav,60.2489650397,prodShadow,2015_Jun_29_1615,midd,
distractor,ada,stim/ada.wav,0,36,36,0,,,space,3.20090913773,,,000,mav,60.2489650397,prodShadow,2015_Jun_29_1615,midd,
target,paka,stim/paka.wav,0,37,37,35,,,space,2.98413801193,,,000,mav,60.2489650397,prodShadow,2015_Jun_29_1615,midd,
target,duku,stim/duku.wav,0,38,38,17,,,space,2.91764092445,,,000,mav,60.2489650397,prodShadow,2015_Jun_29_1615,midd,
distractor,oka,stim/oka.wav,0,39,39,34,,,space,3.05138802528,,,000,mav,60.2489650397,prodShadow,2015_Jun_29_1615,midd,
pname,bala,stim/bala.wav,0,40,40,3,,,space,2.96836018562,,,000,mav,60.2489650397,prodShadow,2015_Jun_29_1615,midd,
pname,dado,stim/dado.wav,0,41,41,11,,,space,3.1845369339,,,000,mav,60.2489650397,prodShadow,2015_Jun_29_1615,midd,
target,gaka,stim/gaka.wav,0,42,42,20,,,space,3.18462181091,,,000,mav,60.2489650397,prodShadow,2015_Jun_29_1615,midd,
target,kiki,stim/kiki.wav,0,43,43,30,,,space,3.0175049305,,,000,mav,60.2489650397,prodShadow,2015_Jun_29_1615,midd,
distractor,apa,stim/apa.wav,0,44,44,1,,,space,3.20087695122,,,000,mav,60.2489650397,prodShadow,2015_Jun_29_1615,midd,
target,teke,stim/teke.wav,0,45,45,44,,,space,2.96794009209,,,000,mav,60.2489650397,prodShadow,2015_Jun_29_1615,midd,
target,buku,stim/buku.wav,0,46,46,8,,,space,3.41722583771,,,000,mav,60.2489650397,prodShadow,2015_Jun_29_1615,midd,
target,diki,stim/diki.wav,0,47,47,14,,,space,3.15122199059,,,000,mav,60.2489650397,prodShadow,2015_Jun_29_1615,midd,
target,peke,stim/peke.wav,0,48,48,37,,,space,3.16785788536,,,000,mav,60.2489650397,prodShadow,2015_Jun_29_1615,midd,
target,puku,stim/puku.wav,0,49,49,41,,,space,3.13394904137,,,000,mav,60.2489650397,prodShadow,2015_Jun_29_1615,midd,
pname,taco,stim/taco.wav,1,0,50,42,,,space,3.23429298401,,,000,mav,60.2489650397,prodShadow,2015_Jun_29_1615,midd,
target,piki,stim/piki.wav,1,1,51,38,,,space,2.78446912766,,,000,mav,60.2489650397,prodShadow,2015_Jun_29_1615,midd,
distractor,oba,stim/oba.wav,1,2,52,33,,,space,3.10096907616,,,000,mav,60.2489650397,prodShadow,2015_Jun_29_1615,midd,
target,goko,stim/goko.wav,1,3,53,24,,,space,3.35126495361,,,000,mav,60.2489650397,prodShadow,2015_Jun_29_1615,midd,
distractor,ita,stim/ita.wav,1,4,54,27,,,space,3.46760988235,,,000,mav,60.2489650397,prodShadow,2015_Jun_29_1615,midd,
target,beke,stim/beke.wav,1,5,55,4,,,space,3.401086092,,,000,mav,60.2489650397,prodShadow,2015_Jun_29_1615,midd,
target,duku,stim/duku.wav,1,6,56,17,,,space,3.13443899155,,,000,mav,60.2489650397,prodShadow,2015_Jun_29_1615,midd,
target,toko,stim/toko.wav,1,7,57,47,,,space,2.93476510048,,,000,mav,60.2489650397,prodShadow,2015_Jun_29_1615,midd,
pname,dado,stim/dado.wav,1,8,58,11,,,space,3.06749296188,,,000,mav,60.2489650397,prodShadow,2015_Jun_29_1615,midd,
target,tuku,stim/tuku.wav,1,9,59,48,,,space,2.65099191666,,,000,mav,60.2489650397,prodShadow,2015_Jun_29_1615,midd,
distractor,oka,stim/oka.wav,1,10,60,34,,,space,3.05100917816,,,000,mav,60.2489650397,prodShadow,2015_Jun_29_1615,midd,
distractor,uta,stim/uta.wav,1,11,61,49,,,space,2.50046014786,,,000,mav,60.2489650397,prodShadow,2015_Jun_29_1615,midd,
target,puku,stim/puku.wav,1,12,62,41,,,space,3.03421187401,,,000,mav,60.2489650397,prodShadow,2015_Jun_29_1615,midd,
target,boko,stim/boko.wav,1,13,63,6,,,space,3.20116400719,,,000,mav,60.2489650397,prodShadow,2015_Jun_29_1615,midd,
pname,palo,stim/palo.wav,1,14,64,36,,,space,3.0343940258,,,000,mav,60.2489650397,prodShadow,2015_Jun_29_1615,midd,
target,kuku,stim/kuku.wav,1,15,65,32,,,space,2.90143609047,,,000,mav,60.2489650397,prodShadow,2015_Jun_29_1615,midd,
target,teke,stim/teke.wav,1,16,66,44,,,space,2.83386301994,,,000,mav,60.2489650397,prodShadow,2015_Jun_29_1615,midd,
target,guku,stim/guku.wav,1,17,67,26,,,space,2.91774201393,,,000,mav,60.2489650397,prodShadow,2015_Jun_29_1615,midd,
pname,dodo,stim/dodo.wav,1,18,68,15,,,space,3.08469200134,,,000,mav,60.2489650397,prodShadow,2015_Jun_29_1615,midd,
pname,bola,stim/bola.wav,1,19,69,7,,,space,3.30099892616,,,000,mav,60.2489650397,prodShadow,2015_Jun_29_1615,midd,
pname,polo,stim/polo.wav,1,20,70,40,,,space,3.40136313438,,,000,mav,60.2489650397,prodShadow,2015_Jun_29_1615,midd,
pname,caca,stim/caca.wav,1,21,71,9,,,space,2.51785302162,,,000,mav,60.2489650397,prodShadow,2015_Jun_29_1615,midd,
target,deke,stim/deke.wav,1,22,72,13,,,space,2.91776013374,,,000,mav,60.2489650397,prodShadow,2015_Jun_29_1615,midd,
target,kiki,stim/kiki.wav,1,23,73,30,,,space,2.81777977943,,,000,mav,60.2489650397,prodShadow,2015_Jun_29_1615,midd,
target,koko,stim/koko.wav,1,24,74,31,,,space,3.13414382935,,,000,mav,60.2489650397,prodShadow,2015_Jun_29_1615,midd,
distractor,eda,stim/eda.wav,1,25,75,18,,,space,3.00138306618,,,000,mav,60.2489650397,prodShadow,2015_Jun_29_1615,midd,
target,gaka,stim/gaka.wav,1,26,76,20,,,space,3.15126490593,,,000,mav,60.2489650397,prodShadow,2015_Jun_29_1615,midd,
distractor,epa,stim/epa.wav,1,27,77,19,,,space,2.95099401474,,,000,mav,60.2489650397,prodShadow,2015_Jun_29_1615,midd,
target,keke,stim/keke.wav,1,28,78,29,,,space,3.18441700935,,,000,mav,60.2489650397,prodShadow,2015_Jun_29_1615,midd,
target,buku,stim/buku.wav,1,29,79,8,,,space,3.15095114708,,,000,mav,60.2489650397,prodShadow,2015_Jun_29_1615,midd,
target,poko,stim/poko.wav,1,30,80,39,,,space,2.75126791,,,000,mav,60.2489650397,prodShadow,2015_Jun_29_1615,midd,
target,tiki,stim/tiki.wav,1,31,81,45,,,space,2.71802306175,,,000,mav,60.2489650397,prodShadow,2015_Jun_29_1615,midd,
pname,coco,stim/coco.wav,1,32,82,10,,,space,3.01795196533,,,000,mav,60.2489650397,prodShadow,2015_Jun_29_1615,midd,
target,giki,stim/giki.wav,1,33,83,23,,,space,2.7509469986,,,000,mav,60.2489650397,prodShadow,2015_Jun_29_1615,midd,
pname,gato,stim/gato.wav,1,34,84,21,,,space,3.31716990471,,,000,mav,60.2489650397,prodShadow,2015_Jun_29_1615,midd,
target,daka,stim/daka.wav,1,35,85,12,,,space,3.33464002609,,,000,mav,60.2489650397,prodShadow,2015_Jun_29_1615,midd,
target,kaka,stim/kaka.wav,1,36,86,28,,,space,3.43438601494,,,000,mav,60.2489650397,prodShadow,2015_Jun_29_1615,midd,
target,geke,stim/geke.wav,1,37,87,22,,,space,3.15125489235,,,000,mav,60.2489650397,prodShadow,2015_Jun_29_1615,midd,
distractor,ada,stim/ada.wav,1,38,88,0,,,space,2.90085601807,,,000,mav,60.2489650397,prodShadow,2015_Jun_29_1615,midd,
target,peke,stim/peke.wav,1,39,89,37,,,space,2.71743392944,,,000,mav,60.2489650397,prodShadow,2015_Jun_29_1615,midd,
target,taka,stim/taka.wav,1,40,90,43,,,space,2.70083594322,,,000,mav,60.2489650397,prodShadow,2015_Jun_29_1615,midd,
target,diki,stim/diki.wav,1,41,91,14,,,space,3.06787896156,,,000,mav,60.2489650397,prodShadow,2015_Jun_29_1615,midd,
target,biki,stim/biki.wav,1,42,92,5,,,space,3.11740803719,,,000,mav,60.2489650397,prodShadow,2015_Jun_29_1615,midd,
pname,bala,stim/bala.wav,1,43,93,3,,,space,3.00070500374,,,000,mav,60.2489650397,prodShadow,2015_Jun_29_1615,midd,
distractor,apa,stim/apa.wav,1,44,94,1,,,space,3.00117087364,,,000,mav,60.2489650397,prodShadow,2015_Jun_29_1615,midd,
target,baka,stim/baka.wav,1,45,95,2,,,space,3.46823906898,,,000,mav,60.2489650397,prodShadow,2015_Jun_29_1615,midd,
pname,gota,stim/gota.wav,1,46,96,25,,,space,3.28453087807,,,000,mav,60.2489650397,prodShadow,2015_Jun_29_1615,midd,
pname,topo,stim/topo.wav,1,47,97,46,,,space,2.91767597198,,,000,mav,60.2489650397,prodShadow,2015_Jun_29_1615,midd,
target,doko,stim/doko.wav,1,48,98,16,,,space,3.1848449707,,,000,mav,60.2489650397,prodShadow,2015_Jun_29_1615,midd,
target,paka,stim/paka.wav,1,49,99,35,,,space,2.73393893242,,,000,mav,60.2489650397,prodShadow,2015_Jun_29_1615,midd,
target,duku,stim/duku.wav,2,0,100,17,,,space,2.98362207413,,,000,mav,60.2489650397,prodShadow,2015_Jun_29_1615,midd,
pname,taco,stim/taco.wav,2,1,101,42,,,space,2.70058012009,,,000,mav,60.2489650397,prodShadow,2015_Jun_29_1615,midd,
target,diki,stim/diki.wav,2,2,102,14,,,space,3.03434801102,,,000,mav,60.2489650397,prodShadow,2015_Jun_29_1615,midd,
target,keke,stim/keke.wav,2,3,103,29,,,space,3.11780118942,,,000,mav,60.2489650397,prodShadow,2015_Jun_29_1615,midd,
pname,bola,stim/bola.wav,2,4,104,7,,,space,3.26644706726,,,000,mav,60.2489650397,prodShadow,2015_Jun_29_1615,midd,
pname,palo,stim/palo.wav,2,5,105,36,,,space,2.46745085716,,,000,mav,60.2489650397,prodShadow,2015_Jun_29_1615,midd,
pname,coco,stim/coco.wav,2,6,106,10,,,space,2.90007209778,,,000,mav,60.2489650397,prodShadow,2015_Jun_29_1615,midd,
distractor,apa,stim/apa.wav,2,7,107,1,,,space,2.91795802116,,,000,mav,60.2489650397,prodShadow,2015_Jun_29_1615,midd,
pname,dado,stim/dado.wav,2,8,108,11,,,space,3.20027112961,,,000,mav,60.2489650397,prodShadow,2015_Jun_29_1615,midd,
target,kiki,stim/kiki.wav,2,9,109,30,,,space,2.9830789566,,,000,mav,60.2489650397,prodShadow,2015_Jun_29_1615,midd,
target,giki,stim/giki.wav,2,10,110,23,,,space,2.50071191788,,,000,mav,60.2489650397,prodShadow,2015_Jun_29_1615,midd,
distractor,eda,stim/eda.wav,2,11,111,18,,,space,3.0189371109,,,000,mav,60.2489650397,prodShadow,2015_Jun_29_1615,midd,
pname,topo,stim/topo.wav,2,12,112,46,,,space,2.93466186523,,,000,mav,60.2489650397,prodShadow,2015_Jun_29_1615,midd,
target,beke,stim/beke.wav,2,13,113,4,,,space,3.58488917351,,,000,mav,60.2489650397,prodShadow,2015_Jun_29_1615,midd,
pname,bala,stim/bala.wav,2,14,114,3,,,space,3.06826400757,,,000,mav,60.2489650397,prodShadow,2015_Jun_29_1615,midd,
pname,dodo,stim/dodo.wav,2,15,115,15,,,space,2.80062508583,,,000,mav,60.2489650397,prodShadow,2015_Jun_29_1615,midd,
distractor,oba,stim/oba.wav,2,16,116,33,,,space,2.60060095787,,,000,mav,60.2489650397,prodShadow,2015_Jun_29_1615,midd,
distractor,ita,stim/ita.wav,2,17,117,27,,,space,2.76756501198,,,000,mav,60.2489650397,prodShadow,2015_Jun_29_1615,midd,
target,peke,stim/peke.wav,2,18,118,37,,,space,3.15014004707,,,000,mav,60.2489650397,prodShadow,2015_Jun_29_1615,midd,
target,geke,stim/geke.wav,2,19,119,22,,,space,2.88370919228,,,000,mav,60.2489650397,prodShadow,2015_Jun_29_1615,midd,
target,buku,stim/buku.wav,2,20,120,8,,,space,3.03383612633,,,000,mav,60.2489650397,prodShadow,2015_Jun_29_1615,midd,
target,tiki,stim/tiki.wav,2,21,121,45,,,space,2.71746301651,,,000,mav,60.2489650397,prodShadow,2015_Jun_29_1615,midd,
target,biki,stim/biki.wav,2,22,122,5,,,space,2.90081691742,,,000,mav,60.2489650397,prodShadow,2015_Jun_29_1615,midd,
distractor,uta,stim/uta.wav,2,23,123,49,,,space,2.91776013374,,,000,mav,60.2489650397,prodShadow,2015_Jun_29_1615,midd,
pname,gato,stim/gato.wav,2,24,124,21,,,space,3.28360891342,,,000,mav,60.2489650397,prodShadow,2015_Jun_29_1615,midd,
target,toko,stim/toko.wav,2,25,125,47,,,space,2.61729097366,,,000,mav,60.2489650397,prodShadow,2015_Jun_29_1615,midd,
target,taka,stim/taka.wav,2,26,126,43,,,space,2.75106501579,,,000,mav,60.2489650397,prodShadow,2015_Jun_29_1615,midd,
target,poko,stim/poko.wav,2,27,127,39,,,space,2.46801590919,,,000,mav,60.2489650397,prodShadow,2015_Jun_29_1615,midd,
target,kuku,stim/kuku.wav,2,28,128,32,,,space,2.81734418869,,,000,mav,60.2489650397,prodShadow,2015_Jun_29_1615,midd,
distractor,epa,stim/epa.wav,2,29,129,19,,,space,2.60115504265,,,000,mav,60.2489650397,prodShadow,2015_Jun_29_1615,midd,
target,teke,stim/teke.wav,2,30,130,44,,,space,2.41868305206,,,000,mav,60.2489650397,prodShadow,2015_Jun_29_1615,midd,
target,koko,stim/koko.wav,2,31,131,31,,,space,2.86761188507,,,000,mav,60.2489650397,prodShadow,2015_Jun_29_1615,midd,
target,deke,stim/deke.wav,2,32,132,13,,,space,2.85164308548,,,000,mav,60.2489650397,prodShadow,2015_Jun_29_1615,midd,
target,piki,stim/piki.wav,2,33,133,38,,,space,2.58418917656,,,000,mav,60.2489650397,prodShadow,2015_Jun_29_1615,midd,
target,puku,stim/puku.wav,2,34,134,41,,,space,2.60111689568,,,000,mav,60.2489650397,prodShadow,2015_Jun_29_1615,midd,
target,goko,stim/goko.wav,2,35,135,24,,,space,2.63493394852,,,000,mav,60.2489650397,prodShadow,2015_Jun_29_1615,midd,
target,boko,stim/boko.wav,2,36,136,6,,,space,2.8009531498,,,000,mav,60.2489650397,prodShadow,2015_Jun_29_1615,midd,
target,guku,stim/guku.wav,2,37,137,26,,,space,2.56629896164,,,000,mav,60.2489650397,prodShadow,2015_Jun_29_1615,midd,
distractor,oka,stim/oka.wav,2,38,138,34,,,space,2.91769480705,,,000,mav,60.2489650397,prodShadow,2015_Jun_29_1615,midd,
pname,gota,stim/gota.wav,2,39,139,25,,,space,3.06764912605,,,000,mav,60.2489650397,prodShadow,2015_Jun_29_1615,midd,
pname,polo,stim/polo.wav,2,40,140,40,,,space,2.70071911812,,,000,mav,60.2489650397,prodShadow,2015_Jun_29_1615,midd,
target,daka,stim/daka.wav,2,41,141,12,,,space,2.65229105949,,,000,mav,60.2489650397,prodShadow,2015_Jun_29_1615,midd,
target,paka,stim/paka.wav,2,42,142,35,,,space,2.51848006248,,,000,mav,60.2489650397,prodShadow,2015_Jun_29_1615,midd,
target,kaka,stim/kaka.wav,2,43,143,28,,,space,2.58402895927,,,000,mav,60.2489650397,prodShadow,2015_Jun_29_1615,midd,
target,gaka,stim/gaka.wav,2,44,144,20,,,space,2.81523394585,,,000,mav,60.2489650397,prodShadow,2015_Jun_29_1615,midd,
target,tuku,stim/tuku.wav,2,45,145,48,,,space,3.14998197556,,,000,mav,60.2489650397,prodShadow,2015_Jun_29_1615,midd,
distractor,ada,stim/ada.wav,2,46,146,0,,,space,3.0348649025,,,000,mav,60.2489650397,prodShadow,2015_Jun_29_1615,midd,
pname,caca,stim/caca.wav,2,47,147,9,,,space,2.39776587486,,,000,mav,60.2489650397,prodShadow,2015_Jun_29_1615,midd,
target,doko,stim/doko.wav,2,48,148,16,,,space,2.64957904816,,,000,mav,60.2489650397,prodShadow,2015_Jun_29_1615,midd,
target,baka,stim/baka.wav,2,49,149,2,,,space,3.05401206017,,,000,mav,60.2489650397,prodShadow,2015_Jun_29_1615,midd,
,,,,,,,,,,,space,37.3511331081,000,mav,60.2489650397,prodShadow,2015_Jun_29_1615,midd,
