status,text,stim,trials.thisRepN,trials.thisTrialN,trials.thisN,trials.thisIndex,key_resp_3.keys,key_resp_3.rt,key_resp_2.keys,key_resp_2.rt,key_resp_4.keys,key_resp_4.rt,session,participant,frameRate,expName,date,condition,
,,,,,,,space,1.41711091995,,,,,005,mam,59.930186536,prodShadow,2015_Aug_02_1608,midd,
distractor,ada,stim/ada.wav,0,0,0,0,,,space,1.0841190815,,,005,mam,59.930186536,prodShadow,2015_Aug_02_1608,midd,
distractor,epa,stim/epa.wav,0,1,1,19,,,space,0.750559091568,,,005,mam,59.930186536,prodShadow,2015_Aug_02_1608,midd,
target,giki,stim/giki.wav,0,2,2,23,,,space,0.70067691803,,,005,mam,59.930186536,prodShadow,2015_Aug_02_1608,midd,
target,puku,stim/puku.wav,0,3,3,41,,,space,0.983891010284,,,005,mam,59.930186536,prodShadow,2015_Aug_02_1608,midd,
target,tuku,stim/tuku.wav,0,4,4,48,,,space,0.800579071045,,,005,mam,59.930186536,prodShadow,2015_Aug_02_1608,midd,
distractor,oka,stim/oka.wav,0,5,5,34,,,space,1.10061597824,,,005,mam,59.930186536,prodShadow,2015_Aug_02_1608,midd,
target,kaka,stim/kaka.wav,0,6,6,28,,,space,0.850694179535,,,005,mam,59.930186536,prodShadow,2015_Aug_02_1608,midd,
target,baka,stim/baka.wav,0,7,7,2,,,space,0.867478847504,,,005,mam,59.930186536,prodShadow,2015_Aug_02_1608,midd,
pname,polo,stim/polo.wav,0,8,8,40,,,space,0.817402124405,,,005,mam,59.930186536,prodShadow,2015_Aug_02_1608,midd,
pname,palo,stim/palo.wav,0,9,9,36,,,space,0.68397808075,,,005,mam,59.930186536,prodShadow,2015_Aug_02_1608,midd,
pname,dado,stim/dado.wav,0,10,10,11,,,space,0.933986902237,,,005,mam,59.930186536,prodShadow,2015_Aug_02_1608,midd,
target,geke,stim/geke.wav,0,11,11,22,,,space,0.834365129471,,,005,mam,59.930186536,prodShadow,2015_Aug_02_1608,midd,
target,piki,stim/piki.wav,0,12,12,38,,,space,0.634252071381,,,005,mam,59.930186536,prodShadow,2015_Aug_02_1608,midd,
pname,gato,stim/gato.wav,0,13,13,21,,,space,1.03438997269,,,005,mam,59.930186536,prodShadow,2015_Aug_02_1608,midd,
pname,bala,stim/bala.wav,0,14,14,3,,,space,0.750777959824,,,005,mam,59.930186536,prodShadow,2015_Aug_02_1608,midd,
target,guku,stim/guku.wav,0,15,15,26,,,space,0.817400932312,,,005,mam,59.930186536,prodShadow,2015_Aug_02_1608,midd,
pname,bola,stim/bola.wav,0,16,16,7,,,space,0.867376089096,,,005,mam,59.930186536,prodShadow,2015_Aug_02_1608,midd,
target,paka,stim/paka.wav,0,17,17,35,,,space,0.783871173859,,,005,mam,59.930186536,prodShadow,2015_Aug_02_1608,midd,
pname,caca,stim/caca.wav,0,18,18,9,,,space,0.834045886993,,,005,mam,59.930186536,prodShadow,2015_Aug_02_1608,midd,
pname,taco,stim/taco.wav,0,19,19,42,,,space,0.883985996246,,,005,mam,59.930186536,prodShadow,2015_Aug_02_1608,midd,
target,tiki,stim/tiki.wav,0,20,20,45,,,space,0.650806188583,,,005,mam,59.930186536,prodShadow,2015_Aug_02_1608,midd,
target,buku,stim/buku.wav,0,21,21,8,,,space,0.783894062042,,,005,mam,59.930186536,prodShadow,2015_Aug_02_1608,midd,
pname,topo,stim/topo.wav,0,22,22,46,,,space,0.600358009338,,,005,mam,59.930186536,prodShadow,2015_Aug_02_1608,midd,
target,beke,stim/beke.wav,0,23,23,4,,,space,0.850537061691,,,005,mam,59.930186536,prodShadow,2015_Aug_02_1608,midd,
target,daka,stim/daka.wav,0,24,24,12,,,space,0.667319059372,,,005,mam,59.930186536,prodShadow,2015_Aug_02_1608,midd,
target,kuku,stim/kuku.wav,0,25,25,32,,,space,0.617429971695,,,005,mam,59.930186536,prodShadow,2015_Aug_02_1608,midd,
distractor,ita,stim/ita.wav,0,26,26,27,,,space,0.650238037109,,,005,mam,59.930186536,prodShadow,2015_Aug_02_1608,midd,
target,diki,stim/diki.wav,0,27,27,14,,,space,0.800456047058,,,005,mam,59.930186536,prodShadow,2015_Aug_02_1608,midd,
distractor,uta,stim/uta.wav,0,28,28,49,,,space,0.784210920334,,,005,mam,59.930186536,prodShadow,2015_Aug_02_1608,midd,
distractor,oba,stim/oba.wav,0,29,29,33,,,space,0.70049405098,,,005,mam,59.930186536,prodShadow,2015_Aug_02_1608,midd,
target,deke,stim/deke.wav,0,30,30,13,,,space,0.900815010071,,,005,mam,59.930186536,prodShadow,2015_Aug_02_1608,midd,
target,biki,stim/biki.wav,0,31,31,5,,,space,0.883774995804,,,005,mam,59.930186536,prodShadow,2015_Aug_02_1608,midd,
target,kiki,stim/kiki.wav,0,32,32,30,,,space,0.700569868088,,,005,mam,59.930186536,prodShadow,2015_Aug_02_1608,midd,
target,koko,stim/koko.wav,0,33,33,31,,,space,0.817086935043,,,005,mam,59.930186536,prodShadow,2015_Aug_02_1608,midd,
target,doko,stim/doko.wav,0,34,34,16,,,space,1.03452801704,,,005,mam,59.930186536,prodShadow,2015_Aug_02_1608,midd,
target,poko,stim/poko.wav,0,35,35,39,,,space,0.784044027328,,,005,mam,59.930186536,prodShadow,2015_Aug_02_1608,midd,
distractor,apa,stim/apa.wav,0,36,36,1,,,space,0.80068397522,,,005,mam,59.930186536,prodShadow,2015_Aug_02_1608,midd,
pname,gota,stim/gota.wav,0,37,37,25,,,space,1.00054001808,,,005,mam,59.930186536,prodShadow,2015_Aug_02_1608,midd,
target,boko,stim/boko.wav,0,38,38,6,,,space,0.867297887802,,,005,mam,59.930186536,prodShadow,2015_Aug_02_1608,midd,
target,toko,stim/toko.wav,0,39,39,47,,,space,0.750726938248,,,005,mam,59.930186536,prodShadow,2015_Aug_02_1608,midd,
target,teke,stim/teke.wav,0,40,40,44,,,space,0.684036970139,,,005,mam,59.930186536,prodShadow,2015_Aug_02_1608,midd,
target,duku,stim/duku.wav,0,41,41,17,,,space,0.784150123596,,,005,mam,59.930186536,prodShadow,2015_Aug_02_1608,midd,
pname,dodo,stim/dodo.wav,0,42,42,15,,,space,0.867245197296,,,005,mam,59.930186536,prodShadow,2015_Aug_02_1608,midd,
pname,coco,stim/coco.wav,0,43,43,10,,,space,0.950995922089,,,005,mam,59.930186536,prodShadow,2015_Aug_02_1608,midd,
target,taka,stim/taka.wav,0,44,44,43,,,space,0.917582035065,,,005,mam,59.930186536,prodShadow,2015_Aug_02_1608,midd,
target,peke,stim/peke.wav,0,45,45,37,,,space,0.81721997261,,,005,mam,59.930186536,prodShadow,2015_Aug_02_1608,midd,
target,keke,stim/keke.wav,0,46,46,29,,,space,0.817517995834,,,005,mam,59.930186536,prodShadow,2015_Aug_02_1608,midd,
target,goko,stim/goko.wav,0,47,47,24,,,space,0.917093038559,,,005,mam,59.930186536,prodShadow,2015_Aug_02_1608,midd,
distractor,eda,stim/eda.wav,0,48,48,18,,,space,0.784324884415,,,005,mam,59.930186536,prodShadow,2015_Aug_02_1608,midd,
target,gaka,stim/gaka.wav,0,49,49,20,,,space,0.883800029755,,,005,mam,59.930186536,prodShadow,2015_Aug_02_1608,midd,
distractor,apa,stim/apa.wav,1,0,50,1,,,space,0.750687122345,,,005,mam,59.930186536,prodShadow,2015_Aug_02_1608,midd,
target,tiki,stim/tiki.wav,1,1,51,45,,,space,0.617446899414,,,005,mam,59.930186536,prodShadow,2015_Aug_02_1608,midd,
target,buku,stim/buku.wav,1,2,52,8,,,space,0.750957012177,,,005,mam,59.930186536,prodShadow,2015_Aug_02_1608,midd,
target,doko,stim/doko.wav,1,3,53,16,,,space,0.884311914444,,,005,mam,59.930186536,prodShadow,2015_Aug_02_1608,midd,
target,kaka,stim/kaka.wav,1,4,54,28,,,space,0.783970832825,,,005,mam,59.930186536,prodShadow,2015_Aug_02_1608,midd,
pname,bala,stim/bala.wav,1,5,55,3,,,space,0.650557041168,,,005,mam,59.930186536,prodShadow,2015_Aug_02_1608,midd,
pname,bola,stim/bola.wav,1,6,56,7,,,space,0.733798980713,,,005,mam,59.930186536,prodShadow,2015_Aug_02_1608,midd,
distractor,epa,stim/epa.wav,1,7,57,19,,,space,0.700713157654,,,005,mam,59.930186536,prodShadow,2015_Aug_02_1608,midd,
target,kiki,stim/kiki.wav,1,8,58,30,,,space,0.717403173447,,,005,mam,59.930186536,prodShadow,2015_Aug_02_1608,midd,
target,beke,stim/beke.wav,1,9,59,4,,,space,0.967531204224,,,005,mam,59.930186536,prodShadow,2015_Aug_02_1608,midd,
distractor,oba,stim/oba.wav,1,10,60,33,,,space,0.750773191452,,,005,mam,59.930186536,prodShadow,2015_Aug_02_1608,midd,
distractor,oka,stim/oka.wav,1,11,61,34,,,space,0.767044067383,,,005,mam,59.930186536,prodShadow,2015_Aug_02_1608,midd,
target,kuku,stim/kuku.wav,1,12,62,32,,,space,0.767657995224,,,005,mam,59.930186536,prodShadow,2015_Aug_02_1608,midd,
pname,gato,stim/gato.wav,1,13,63,21,,,space,1.15063595772,,,005,mam,59.930186536,prodShadow,2015_Aug_02_1608,midd,
target,paka,stim/paka.wav,1,14,64,35,,,space,0.73423409462,,,005,mam,59.930186536,prodShadow,2015_Aug_02_1608,midd,
target,poko,stim/poko.wav,1,15,65,39,,,space,0.667284965515,,,005,mam,59.930186536,prodShadow,2015_Aug_02_1608,midd,
target,daka,stim/daka.wav,1,16,66,12,,,space,0.733790874481,,,005,mam,59.930186536,prodShadow,2015_Aug_02_1608,midd,
target,tuku,stim/tuku.wav,1,17,67,48,,,space,0.81746006012,,,005,mam,59.930186536,prodShadow,2015_Aug_02_1608,midd,
target,gaka,stim/gaka.wav,1,18,68,20,,,space,0.917605876923,,,005,mam,59.930186536,prodShadow,2015_Aug_02_1608,midd,
pname,palo,stim/palo.wav,1,19,69,36,,,space,0.81717300415,,,005,mam,59.930186536,prodShadow,2015_Aug_02_1608,midd,
target,koko,stim/koko.wav,1,20,70,31,,,space,0.700823068619,,,005,mam,59.930186536,prodShadow,2015_Aug_02_1608,midd,
pname,dodo,stim/dodo.wav,1,21,71,15,,,space,0.734252929688,,,005,mam,59.930186536,prodShadow,2015_Aug_02_1608,midd,
target,boko,stim/boko.wav,1,22,72,6,,,space,0.883924007416,,,005,mam,59.930186536,prodShadow,2015_Aug_02_1608,midd,
pname,gota,stim/gota.wav,1,23,73,25,,,space,0.917382955551,,,005,mam,59.930186536,prodShadow,2015_Aug_02_1608,midd,
target,diki,stim/diki.wav,1,24,74,14,,,space,0.683980941772,,,005,mam,59.930186536,prodShadow,2015_Aug_02_1608,midd,
target,peke,stim/peke.wav,1,25,75,37,,,space,0.700704813004,,,005,mam,59.930186536,prodShadow,2015_Aug_02_1608,midd,
target,duku,stim/duku.wav,1,26,76,17,,,space,0.783964157104,,,005,mam,59.930186536,prodShadow,2015_Aug_02_1608,midd,
distractor,uta,stim/uta.wav,1,27,77,49,,,space,0.767385959625,,,005,mam,59.930186536,prodShadow,2015_Aug_02_1608,midd,
target,toko,stim/toko.wav,1,28,78,47,,,space,0.61727309227,,,005,mam,59.930186536,prodShadow,2015_Aug_02_1608,midd,
target,goko,stim/goko.wav,1,29,79,24,,,space,0.834017038345,,,005,mam,59.930186536,prodShadow,2015_Aug_02_1608,midd,
distractor,ada,stim/ada.wav,1,30,80,0,,,space,0.733865022659,,,005,mam,59.930186536,prodShadow,2015_Aug_02_1608,midd,
target,baka,stim/baka.wav,1,31,81,2,,,space,0.750890016556,,,005,mam,59.930186536,prodShadow,2015_Aug_02_1608,midd,
target,giki,stim/giki.wav,1,32,82,23,,,space,0.684041976929,,,005,mam,59.930186536,prodShadow,2015_Aug_02_1608,midd,
target,piki,stim/piki.wav,1,33,83,38,,,space,0.484123945236,,,005,mam,59.930186536,prodShadow,2015_Aug_02_1608,midd,
target,geke,stim/geke.wav,1,34,84,22,,,space,0.651030063629,,,005,mam,59.930186536,prodShadow,2015_Aug_02_1608,midd,
target,deke,stim/deke.wav,1,35,85,13,,,space,0.834167957306,,,005,mam,59.930186536,prodShadow,2015_Aug_02_1608,midd,
target,teke,stim/teke.wav,1,36,86,44,,,space,0.65078496933,,,005,mam,59.930186536,prodShadow,2015_Aug_02_1608,midd,
distractor,eda,stim/eda.wav,1,37,87,18,,,space,0.650600910187,,,005,mam,59.930186536,prodShadow,2015_Aug_02_1608,midd,
pname,polo,stim/polo.wav,1,38,88,40,,,space,0.667555093765,,,005,mam,59.930186536,prodShadow,2015_Aug_02_1608,midd,
target,keke,stim/keke.wav,1,39,89,29,,,space,0.600640058517,,,005,mam,59.930186536,prodShadow,2015_Aug_02_1608,midd,
distractor,ita,stim/ita.wav,1,40,90,27,,,space,0.63431096077,,,005,mam,59.930186536,prodShadow,2015_Aug_02_1608,midd,
pname,caca,stim/caca.wav,1,41,91,9,,,space,0.700881004333,,,005,mam,59.930186536,prodShadow,2015_Aug_02_1608,midd,
target,taka,stim/taka.wav,1,42,92,43,,,space,0.800813913345,,,005,mam,59.930186536,prodShadow,2015_Aug_02_1608,midd,
pname,coco,stim/coco.wav,1,43,93,10,,,space,0.767247915268,,,005,mam,59.930186536,prodShadow,2015_Aug_02_1608,midd,
pname,taco,stim/taco.wav,1,44,94,42,,,space,0.817054986954,,,005,mam,59.930186536,prodShadow,2015_Aug_02_1608,midd,
pname,topo,stim/topo.wav,1,45,95,46,,,space,0.617215871811,,,005,mam,59.930186536,prodShadow,2015_Aug_02_1608,midd,
target,biki,stim/biki.wav,1,46,96,5,,,space,0.83399105072,,,005,mam,59.930186536,prodShadow,2015_Aug_02_1608,midd,
target,puku,stim/puku.wav,1,47,97,41,,,space,0.667018175125,,,005,mam,59.930186536,prodShadow,2015_Aug_02_1608,midd,
target,guku,stim/guku.wav,1,48,98,26,,,space,0.766753196716,,,005,mam,59.930186536,prodShadow,2015_Aug_02_1608,midd,
pname,dado,stim/dado.wav,1,49,99,11,,,space,0.783845186234,,,005,mam,59.930186536,prodShadow,2015_Aug_02_1608,midd,
target,deke,stim/deke.wav,2,0,100,13,,,space,0.984622001648,,,005,mam,59.930186536,prodShadow,2015_Aug_02_1608,midd,
target,keke,stim/keke.wav,2,1,101,29,,,space,0.617284059525,,,005,mam,59.930186536,prodShadow,2015_Aug_02_1608,midd,
target,kiki,stim/kiki.wav,2,2,102,30,,,space,0.734427928925,,,005,mam,59.930186536,prodShadow,2015_Aug_02_1608,midd,
target,goko,stim/goko.wav,2,3,103,24,,,space,0.834034919739,,,005,mam,59.930186536,prodShadow,2015_Aug_02_1608,midd,
target,guku,stim/guku.wav,2,4,104,26,,,space,0.783807992935,,,005,mam,59.930186536,prodShadow,2015_Aug_02_1608,midd,
target,puku,stim/puku.wav,2,5,105,41,,,space,0.734017848969,,,005,mam,59.930186536,prodShadow,2015_Aug_02_1608,midd,
distractor,ita,stim/ita.wav,2,6,106,27,,,space,0.750700950623,,,005,mam,59.930186536,prodShadow,2015_Aug_02_1608,midd,
target,baka,stim/baka.wav,2,7,107,2,,,space,0.85062789917,,,005,mam,59.930186536,prodShadow,2015_Aug_02_1608,midd,
pname,gato,stim/gato.wav,2,8,108,21,,,space,1.00106406212,,,005,mam,59.930186536,prodShadow,2015_Aug_02_1608,midd,
target,teke,stim/teke.wav,2,9,109,44,,,space,0.717381000519,,,005,mam,59.930186536,prodShadow,2015_Aug_02_1608,midd,
distractor,apa,stim/apa.wav,2,10,110,1,,,space,0.751113176346,,,005,mam,59.930186536,prodShadow,2015_Aug_02_1608,midd,
target,giki,stim/giki.wav,2,11,111,23,,,space,0.717324972153,,,005,mam,59.930186536,prodShadow,2015_Aug_02_1608,midd,
pname,coco,stim/coco.wav,2,12,112,10,,,space,0.86736702919,,,005,mam,59.930186536,prodShadow,2015_Aug_02_1608,midd,
distractor,oka,stim/oka.wav,2,13,113,34,,,space,0.901021003723,,,005,mam,59.930186536,prodShadow,2015_Aug_02_1608,midd,
target,piki,stim/piki.wav,2,14,114,38,,,space,0.700582027435,,,005,mam,59.930186536,prodShadow,2015_Aug_02_1608,midd,
pname,gota,stim/gota.wav,2,15,115,25,,,space,0.884145021439,,,005,mam,59.930186536,prodShadow,2015_Aug_02_1608,midd,
target,diki,stim/diki.wav,2,16,116,14,,,space,0.783998966217,,,005,mam,59.930186536,prodShadow,2015_Aug_02_1608,midd,
target,koko,stim/koko.wav,2,17,117,31,,,space,0.800821065903,,,005,mam,59.930186536,prodShadow,2015_Aug_02_1608,midd,
target,poko,stim/poko.wav,2,18,118,39,,,space,0.750888109207,,,005,mam,59.930186536,prodShadow,2015_Aug_02_1608,midd,
target,buku,stim/buku.wav,2,19,119,8,,,space,1.05118083954,,,005,mam,59.930186536,prodShadow,2015_Aug_02_1608,midd,
distractor,uta,stim/uta.wav,2,20,120,49,,,space,0.767524003983,,,005,mam,59.930186536,prodShadow,2015_Aug_02_1608,midd,
pname,caca,stim/caca.wav,2,21,121,9,,,space,0.717446088791,,,005,mam,59.930186536,prodShadow,2015_Aug_02_1608,midd,
distractor,eda,stim/eda.wav,2,22,122,18,,,space,0.834041118622,,,005,mam,59.930186536,prodShadow,2015_Aug_02_1608,midd,
target,paka,stim/paka.wav,2,23,123,35,,,space,0.667757034302,,,005,mam,59.930186536,prodShadow,2015_Aug_02_1608,midd,
target,duku,stim/duku.wav,2,24,124,17,,,space,0.734076023102,,,005,mam,59.930186536,prodShadow,2015_Aug_02_1608,midd,
target,tiki,stim/tiki.wav,2,25,125,45,,,space,0.68385720253,,,005,mam,59.930186536,prodShadow,2015_Aug_02_1608,midd,
pname,polo,stim/polo.wav,2,26,126,40,,,space,0.70082116127,,,005,mam,59.930186536,prodShadow,2015_Aug_02_1608,midd,
target,boko,stim/boko.wav,2,27,127,6,,,space,0.800714015961,,,005,mam,59.930186536,prodShadow,2015_Aug_02_1608,midd,
target,peke,stim/peke.wav,2,28,128,37,,,space,0.517430067062,,,005,mam,59.930186536,prodShadow,2015_Aug_02_1608,midd,
distractor,epa,stim/epa.wav,2,29,129,19,,,space,0.684026002884,,,005,mam,59.930186536,prodShadow,2015_Aug_02_1608,midd,
target,kaka,stim/kaka.wav,2,30,130,28,,,space,0.800551891327,,,005,mam,59.930186536,prodShadow,2015_Aug_02_1608,midd,
target,tuku,stim/tuku.wav,2,31,131,48,,,space,0.600614070892,,,005,mam,59.930186536,prodShadow,2015_Aug_02_1608,midd,
pname,dado,stim/dado.wav,2,32,132,11,,,space,0.817633152008,,,005,mam,59.930186536,prodShadow,2015_Aug_02_1608,midd,
distractor,oba,stim/oba.wav,2,33,133,33,,,space,0.933995008469,,,005,mam,59.930186536,prodShadow,2015_Aug_02_1608,midd,
target,biki,stim/biki.wav,2,34,134,5,,,space,0.867438077927,,,005,mam,59.930186536,prodShadow,2015_Aug_02_1608,midd,
target,beke,stim/beke.wav,2,35,135,4,,,space,0.984044075012,,,005,mam,59.930186536,prodShadow,2015_Aug_02_1608,midd,
pname,dodo,stim/dodo.wav,2,36,136,15,,,space,0.700453996658,,,005,mam,59.930186536,prodShadow,2015_Aug_02_1608,midd,
pname,taco,stim/taco.wav,2,37,137,42,,,space,0.717654943466,,,005,mam,59.930186536,prodShadow,2015_Aug_02_1608,midd,
target,toko,stim/toko.wav,2,38,138,47,,,space,0.483725786209,,,005,mam,59.930186536,prodShadow,2015_Aug_02_1608,midd,
pname,bola,stim/bola.wav,2,39,139,7,,,space,0.683882951736,,,005,mam,59.930186536,prodShadow,2015_Aug_02_1608,midd,
target,taka,stim/taka.wav,2,40,140,43,,,space,0.634001016617,,,005,mam,59.930186536,prodShadow,2015_Aug_02_1608,midd,
target,gaka,stim/gaka.wav,2,41,141,20,,,space,0.667788028717,,,005,mam,59.930186536,prodShadow,2015_Aug_02_1608,midd,
target,kuku,stim/kuku.wav,2,42,142,32,,,space,0.65073299408,,,005,mam,59.930186536,prodShadow,2015_Aug_02_1608,midd,
target,geke,stim/geke.wav,2,43,143,22,,,space,0.834149837494,,,005,mam,59.930186536,prodShadow,2015_Aug_02_1608,midd,
pname,topo,stim/topo.wav,2,44,144,46,,,space,0.701018095016,,,005,mam,59.930186536,prodShadow,2015_Aug_02_1608,midd,
distractor,ada,stim/ada.wav,2,45,145,0,,,space,0.767749071121,,,005,mam,59.930186536,prodShadow,2015_Aug_02_1608,midd,
target,daka,stim/daka.wav,2,46,146,12,,,space,0.733855009079,,,005,mam,59.930186536,prodShadow,2015_Aug_02_1608,midd,
pname,bala,stim/bala.wav,2,47,147,3,,,space,0.5176820755,,,005,mam,59.930186536,prodShadow,2015_Aug_02_1608,midd,
pname,palo,stim/palo.wav,2,48,148,36,,,space,0.700835943222,,,005,mam,59.930186536,prodShadow,2015_Aug_02_1608,midd,
target,doko,stim/doko.wav,2,49,149,16,,,space,0.784167051315,,,005,mam,59.930186536,prodShadow,2015_Aug_02_1608,midd,
,,,,,,,,,,,space,18.8689608574,005,mam,59.930186536,prodShadow,2015_Aug_02_1608,midd,
