status,stim,trials.thisRepN,trials.thisTrialN,trials.thisN,trials.thisIndex,key_resp_2.keys,key_resp_2.rt,key_resp_4.keys,key_resp_4.rt,session,participant,frameRate,expName,date,condition,
target,stim/bola.png,0,0,0,9,space,2.5007789135,,,001,bco,59.9750908355,prodShadow,2015_Aug_11_1621,midd,
distractor,stim/sombrero.png,0,1,1,0,space,1.36693000793,,,001,bco,59.9750908355,prodShadow,2015_Aug_11_1621,midd,
distractor,stim/manzana.png,0,2,2,4,space,1.1509270668,,,001,bco,59.9750908355,prodShadow,2015_Aug_11_1621,midd,
distractor,stim/mochila.png,0,3,3,7,space,1.21772384644,,,001,bco,59.9750908355,prodShadow,2015_Aug_11_1621,midd,
target,stim/caca.png,0,4,4,10,space,0.850605010986,,,001,bco,59.9750908355,prodShadow,2015_Aug_11_1621,midd,
target,stim/gota.png,0,5,5,15,space,1.93384408951,,,001,bco,59.9750908355,prodShadow,2015_Aug_11_1621,midd,
distractor,stim/silla.png,0,6,6,6,space,0.933793067932,,,001,bco,59.9750908355,prodShadow,2015_Aug_11_1621,midd,
distractor,stim/arbol.png,0,7,7,2,space,1.08409690857,,,001,bco,59.9750908355,prodShadow,2015_Aug_11_1621,midd,
target,stim/taco.png,0,8,8,18,space,0.850614070892,,,001,bco,59.9750908355,prodShadow,2015_Aug_11_1621,midd,
target,stim/gato.png,0,9,9,14,space,1.05052995682,,,001,bco,59.9750908355,prodShadow,2015_Aug_11_1621,midd,
target,stim/dado.png,0,10,10,12,space,3.23424696922,,,001,bco,59.9750908355,prodShadow,2015_Aug_11_1621,midd,
distractor,stim/sol.png,0,11,11,1,space,1.1339700222,,,001,bco,59.9750908355,prodShadow,2015_Aug_11_1621,midd,
distractor,stim/lapiz.png,0,12,12,3,space,1.2170920372,,,001,bco,59.9750908355,prodShadow,2015_Aug_11_1621,midd,
target,stim/palo.png,0,13,13,16,space,1.16725611687,,,001,bco,59.9750908355,prodShadow,2015_Aug_11_1621,midd,
target,stim/dodo.png,0,14,14,13,space,1.15052700043,,,001,bco,59.9750908355,prodShadow,2015_Aug_11_1621,midd,
target,stim/bala.png,0,15,15,8,space,1.26750278473,,,001,bco,59.9750908355,prodShadow,2015_Aug_11_1621,midd,
target,stim/polo.png,0,16,16,17,space,1.25105595589,,,001,bco,59.9750908355,prodShadow,2015_Aug_11_1621,midd,
distractor,stim/libro.png,0,17,17,5,space,1.2340669632,,,001,bco,59.9750908355,prodShadow,2015_Aug_11_1621,midd,
target,stim/coco.png,0,18,18,11,space,1.11759805679,,,001,bco,59.9750908355,prodShadow,2015_Aug_11_1621,midd,
target,stim/topo.png,0,19,19,19,space,1.71747779846,,,001,bco,59.9750908355,prodShadow,2015_Aug_11_1621,midd,
target,stim/dodo.png,1,0,20,13,space,1.11722612381,,,001,bco,59.9750908355,prodShadow,2015_Aug_11_1621,midd,
distractor,stim/arbol.png,1,1,21,2,space,1.05070400238,,,001,bco,59.9750908355,prodShadow,2015_Aug_11_1621,midd,
target,stim/coco.png,1,2,22,11,space,1.23418998718,,,001,bco,59.9750908355,prodShadow,2015_Aug_11_1621,midd,
target,stim/dado.png,1,3,23,12,space,5.40136289597,,,001,bco,59.9750908355,prodShadow,2015_Aug_11_1621,midd,
target,stim/taco.png,1,4,24,18,space,1.0342810154,,,001,bco,59.9750908355,prodShadow,2015_Aug_11_1621,midd,
target,stim/topo.png,1,5,25,19,space,1.33384203911,,,001,bco,59.9750908355,prodShadow,2015_Aug_11_1621,midd,
target,stim/gato.png,1,6,26,14,space,1.11739110947,,,001,bco,59.9750908355,prodShadow,2015_Aug_11_1621,midd,
target,stim/polo.png,1,7,27,17,space,1.08336997032,,,001,bco,59.9750908355,prodShadow,2015_Aug_11_1621,midd,
target,stim/bala.png,1,8,28,8,space,1.16745185852,,,001,bco,59.9750908355,prodShadow,2015_Aug_11_1621,midd,
distractor,stim/sol.png,1,9,29,1,space,1.10042190552,,,001,bco,59.9750908355,prodShadow,2015_Aug_11_1621,midd,
target,stim/palo.png,1,10,30,16,space,1.08416700363,,,001,bco,59.9750908355,prodShadow,2015_Aug_11_1621,midd,
distractor,stim/libro.png,1,11,31,5,space,1.03438305855,,,001,bco,59.9750908355,prodShadow,2015_Aug_11_1621,midd,
distractor,stim/manzana.png,1,12,32,4,space,1.1671640873,,,001,bco,59.9750908355,prodShadow,2015_Aug_11_1621,midd,
distractor,stim/sombrero.png,1,13,33,0,space,1.1840069294,,,001,bco,59.9750908355,prodShadow,2015_Aug_11_1621,midd,
target,stim/gota.png,1,14,34,15,space,1.36747312546,,,001,bco,59.9750908355,prodShadow,2015_Aug_11_1621,midd,
target,stim/bola.png,1,15,35,9,space,1.36718797684,,,001,bco,59.9750908355,prodShadow,2015_Aug_11_1621,midd,
distractor,stim/lapiz.png,1,16,36,3,space,1.15074777603,,,001,bco,59.9750908355,prodShadow,2015_Aug_11_1621,midd,
distractor,stim/mochila.png,1,17,37,7,space,1.16750407219,,,001,bco,59.9750908355,prodShadow,2015_Aug_11_1621,midd,
target,stim/caca.png,1,18,38,10,space,0.950690984726,,,001,bco,59.9750908355,prodShadow,2015_Aug_11_1621,midd,
distractor,stim/silla.png,1,19,39,6,space,1.11772704124,,,001,bco,59.9750908355,prodShadow,2015_Aug_11_1621,midd,
target,stim/caca.png,2,0,40,10,space,1.06726789474,,,001,bco,59.9750908355,prodShadow,2015_Aug_11_1621,midd,
distractor,stim/libro.png,2,1,41,5,space,1.13440895081,,,001,bco,59.9750908355,prodShadow,2015_Aug_11_1621,midd,
distractor,stim/manzana.png,2,2,42,4,space,1.30039906502,,,001,bco,59.9750908355,prodShadow,2015_Aug_11_1621,midd,
distractor,stim/sombrero.png,2,3,43,0,space,1.2672688961,,,001,bco,59.9750908355,prodShadow,2015_Aug_11_1621,midd,
target,stim/polo.png,2,4,44,17,space,1.36756396294,,,001,bco,59.9750908355,prodShadow,2015_Aug_11_1621,midd,
target,stim/topo.png,2,5,45,19,space,1.11708021164,,,001,bco,59.9750908355,prodShadow,2015_Aug_11_1621,midd,
target,stim/gota.png,2,6,46,15,space,1.20092201233,,,001,bco,59.9750908355,prodShadow,2015_Aug_11_1621,midd,
target,stim/dodo.png,2,7,47,13,space,1.11737203598,,,001,bco,59.9750908355,prodShadow,2015_Aug_11_1621,midd,
distractor,stim/lapiz.png,2,8,48,3,space,1.08408403397,,,001,bco,59.9750908355,prodShadow,2015_Aug_11_1621,midd,
distractor,stim/silla.png,2,9,49,6,space,1.0512650013,,,001,bco,59.9750908355,prodShadow,2015_Aug_11_1621,midd,
target,stim/taco.png,2,10,50,18,space,1.01749897003,,,001,bco,59.9750908355,prodShadow,2015_Aug_11_1621,midd,
distractor,stim/arbol.png,2,11,51,2,space,1.05073595047,,,001,bco,59.9750908355,prodShadow,2015_Aug_11_1621,midd,
target,stim/palo.png,2,12,52,16,space,0.984337091446,,,001,bco,59.9750908355,prodShadow,2015_Aug_11_1621,midd,
target,stim/gato.png,2,13,53,14,space,1.20062613487,,,001,bco,59.9750908355,prodShadow,2015_Aug_11_1621,midd,
target,stim/dado.png,2,14,54,12,space,1.05062508583,,,001,bco,59.9750908355,prodShadow,2015_Aug_11_1621,midd,
distractor,stim/mochila.png,2,15,55,7,space,1.15046691895,,,001,bco,59.9750908355,prodShadow,2015_Aug_11_1621,midd,
target,stim/bala.png,2,16,56,8,space,1.11757707596,,,001,bco,59.9750908355,prodShadow,2015_Aug_11_1621,midd,
target,stim/coco.png,2,17,57,11,space,1.06760001183,,,001,bco,59.9750908355,prodShadow,2015_Aug_11_1621,midd,
distractor,stim/sol.png,2,18,58,1,space,1.03416180611,,,001,bco,59.9750908355,prodShadow,2015_Aug_11_1621,midd,
target,stim/bola.png,2,19,59,9,space,1.38413214684,,,001,bco,59.9750908355,prodShadow,2015_Aug_11_1621,midd,
,,,,,,,,space,10.6845669746,001,bco,59.9750908355,prodShadow,2015_Aug_11_1621,midd,
