status,text,stim,trials.thisRepN,trials.thisTrialN,trials.thisN,trials.thisIndex,key_resp_3.keys,key_resp_3.rt,key_resp_2.keys,key_resp_2.rt,key_resp_4.keys,key_resp_4.rt,session,participant,frameRate,expName,date,condition,
,,,,,,,space,1.71749615669,,,,,002,lmw,59.9754338752,prodShadow,2015_Jul_12_1447,midd,
pname,taco,stim/taco.wav,0,0,0,42,,,space,1.93438601494,,,002,lmw,59.9754338752,prodShadow,2015_Jul_12_1447,midd,
target,geke,stim/geke.wav,0,1,1,22,,,space,2.20086097717,,,002,lmw,59.9754338752,prodShadow,2015_Jul_12_1447,midd,
target,peke,stim/peke.wav,0,2,2,37,,,space,1.65107798576,,,002,lmw,59.9754338752,prodShadow,2015_Jul_12_1447,midd,
pname,bala,stim/bala.wav,0,3,3,3,,,space,1.53415703773,,,002,lmw,59.9754338752,prodShadow,2015_Jul_12_1447,midd,
pname,gota,stim/gota.wav,0,4,4,25,,,space,1.76763010025,,,002,lmw,59.9754338752,prodShadow,2015_Jul_12_1447,midd,
target,koko,stim/koko.wav,0,5,5,31,,,space,1.68438410759,,,002,lmw,59.9754338752,prodShadow,2015_Jul_12_1447,midd,
target,kiki,stim/kiki.wav,0,6,6,30,,,space,1.78425693512,,,002,lmw,59.9754338752,prodShadow,2015_Jul_12_1447,midd,
target,puku,stim/puku.wav,0,7,7,41,,,space,1.43442201614,,,002,lmw,59.9754338752,prodShadow,2015_Jul_12_1447,midd,
target,diki,stim/diki.wav,0,8,8,14,,,space,1.41746115685,,,002,lmw,59.9754338752,prodShadow,2015_Jul_12_1447,midd,
pname,palo,stim/palo.wav,0,9,9,36,,,space,1.41798782349,,,002,lmw,59.9754338752,prodShadow,2015_Jul_12_1447,midd,
distractor,eda,stim/eda.wav,0,10,10,18,,,space,1.60093188286,,,002,lmw,59.9754338752,prodShadow,2015_Jul_12_1447,midd,
target,beke,stim/beke.wav,0,11,11,4,,,space,1.68403911591,,,002,lmw,59.9754338752,prodShadow,2015_Jul_12_1447,midd,
target,deke,stim/deke.wav,0,12,12,13,,,space,1.63384485245,,,002,lmw,59.9754338752,prodShadow,2015_Jul_12_1447,midd,
target,guku,stim/guku.wav,0,13,13,26,,,space,2.01742100716,,,002,lmw,59.9754338752,prodShadow,2015_Jul_12_1447,midd,
distractor,apa,stim/apa.wav,0,14,14,1,,,space,1.83424901962,,,002,lmw,59.9754338752,prodShadow,2015_Jul_12_1447,midd,
target,tiki,stim/tiki.wav,0,15,15,45,,,space,1.58438920975,,,002,lmw,59.9754338752,prodShadow,2015_Jul_12_1447,midd,
distractor,oba,stim/oba.wav,0,16,16,33,,,space,1.45067405701,,,002,lmw,59.9754338752,prodShadow,2015_Jul_12_1447,midd,
target,buku,stim/buku.wav,0,17,17,8,,,space,1.73448801041,,,002,lmw,59.9754338752,prodShadow,2015_Jul_12_1447,midd,
target,daka,stim/daka.wav,0,18,18,12,,,space,1.51750397682,,,002,lmw,59.9754338752,prodShadow,2015_Jul_12_1447,midd,
target,paka,stim/paka.wav,0,19,19,35,,,space,1.40089082718,,,002,lmw,59.9754338752,prodShadow,2015_Jul_12_1447,midd,
pname,polo,stim/polo.wav,0,20,20,40,,,space,1.36751508713,,,002,lmw,59.9754338752,prodShadow,2015_Jul_12_1447,midd,
target,gaka,stim/gaka.wav,0,21,21,20,,,space,1.63395404816,,,002,lmw,59.9754338752,prodShadow,2015_Jul_12_1447,midd,
pname,topo,stim/topo.wav,0,22,22,46,,,space,1.35079407692,,,002,lmw,59.9754338752,prodShadow,2015_Jul_12_1447,midd,
target,boko,stim/boko.wav,0,23,23,6,,,space,1.73406505585,,,002,lmw,59.9754338752,prodShadow,2015_Jul_12_1447,midd,
pname,gato,stim/gato.wav,0,24,24,21,,,space,1.76763486862,,,002,lmw,59.9754338752,prodShadow,2015_Jul_12_1447,midd,
target,kuku,stim/kuku.wav,0,25,25,32,,,space,1.43443703651,,,002,lmw,59.9754338752,prodShadow,2015_Jul_12_1447,midd,
distractor,ada,stim/ada.wav,0,26,26,0,,,space,1.38423109055,,,002,lmw,59.9754338752,prodShadow,2015_Jul_12_1447,midd,
target,poko,stim/poko.wav,0,27,27,39,,,space,1.46743178368,,,002,lmw,59.9754338752,prodShadow,2015_Jul_12_1447,midd,
distractor,uta,stim/uta.wav,0,28,28,49,,,space,1.58417892456,,,002,lmw,59.9754338752,prodShadow,2015_Jul_12_1447,midd,
pname,dado,stim/dado.wav,0,29,29,11,,,space,1.45105791092,,,002,lmw,59.9754338752,prodShadow,2015_Jul_12_1447,midd,
target,toko,stim/toko.wav,0,30,30,47,,,space,1.33407998085,,,002,lmw,59.9754338752,prodShadow,2015_Jul_12_1447,midd,
target,keke,stim/keke.wav,0,31,31,29,,,space,1.83404397964,,,002,lmw,59.9754338752,prodShadow,2015_Jul_12_1447,midd,
distractor,oka,stim/oka.wav,0,32,32,34,,,space,1.53391504288,,,002,lmw,59.9754338752,prodShadow,2015_Jul_12_1447,midd,
target,tuku,stim/tuku.wav,0,33,33,48,,,space,1.60016298294,,,002,lmw,59.9754338752,prodShadow,2015_Jul_12_1447,midd,
pname,bola,stim/bola.wav,0,34,34,7,,,space,1.48415088654,,,002,lmw,59.9754338752,prodShadow,2015_Jul_12_1447,midd,
pname,coco,stim/coco.wav,0,35,35,10,,,space,1.66790604591,,,002,lmw,59.9754338752,prodShadow,2015_Jul_12_1447,midd,
target,biki,stim/biki.wav,0,36,36,5,,,space,1.45092391968,,,002,lmw,59.9754338752,prodShadow,2015_Jul_12_1447,midd,
target,taka,stim/taka.wav,0,37,37,43,,,space,1.7172729969,,,002,lmw,59.9754338752,prodShadow,2015_Jul_12_1447,midd,
target,baka,stim/baka.wav,0,38,38,2,,,space,1.63443303108,,,002,lmw,59.9754338752,prodShadow,2015_Jul_12_1447,midd,
target,goko,stim/goko.wav,0,39,39,24,,,space,1.5509018898,,,002,lmw,59.9754338752,prodShadow,2015_Jul_12_1447,midd,
pname,dodo,stim/dodo.wav,0,40,40,15,,,space,1.90081000328,,,002,lmw,59.9754338752,prodShadow,2015_Jul_12_1447,midd,
target,teke,stim/teke.wav,0,41,41,44,,,space,1.61767411232,,,002,lmw,59.9754338752,prodShadow,2015_Jul_12_1447,midd,
target,kaka,stim/kaka.wav,0,42,42,28,,,space,1.61773896217,,,002,lmw,59.9754338752,prodShadow,2015_Jul_12_1447,midd,
target,giki,stim/giki.wav,0,43,43,23,,,space,1.68391489983,,,002,lmw,59.9754338752,prodShadow,2015_Jul_12_1447,midd,
pname,caca,stim/caca.wav,0,44,44,9,,,space,1.66770482063,,,002,lmw,59.9754338752,prodShadow,2015_Jul_12_1447,midd,
distractor,epa,stim/epa.wav,0,45,45,19,,,space,1.45099401474,,,002,lmw,59.9754338752,prodShadow,2015_Jul_12_1447,midd,
distractor,ita,stim/ita.wav,0,46,46,27,,,space,1.48454189301,,,002,lmw,59.9754338752,prodShadow,2015_Jul_12_1447,midd,
target,duku,stim/duku.wav,0,47,47,17,,,space,1.43456602097,,,002,lmw,59.9754338752,prodShadow,2015_Jul_12_1447,midd,
target,piki,stim/piki.wav,0,48,48,38,,,space,1.40095615387,,,002,lmw,59.9754338752,prodShadow,2015_Jul_12_1447,midd,
target,doko,stim/doko.wav,0,49,49,16,,,space,1.81750702858,,,002,lmw,59.9754338752,prodShadow,2015_Jul_12_1447,midd,
target,kaka,stim/kaka.wav,1,0,50,28,,,space,1.76762008667,,,002,lmw,59.9754338752,prodShadow,2015_Jul_12_1447,midd,
target,doko,stim/doko.wav,1,1,51,16,,,space,1.75045084953,,,002,lmw,59.9754338752,prodShadow,2015_Jul_12_1447,midd,
target,guku,stim/guku.wav,1,2,52,26,,,space,1.45094680786,,,002,lmw,59.9754338752,prodShadow,2015_Jul_12_1447,midd,
target,keke,stim/keke.wav,1,3,53,29,,,space,1.46738004684,,,002,lmw,59.9754338752,prodShadow,2015_Jul_12_1447,midd,
target,peke,stim/peke.wav,1,4,54,37,,,space,1.26758408546,,,002,lmw,59.9754338752,prodShadow,2015_Jul_12_1447,midd,
pname,dodo,stim/dodo.wav,1,5,55,15,,,space,1.65085101128,,,002,lmw,59.9754338752,prodShadow,2015_Jul_12_1447,midd,
pname,coco,stim/coco.wav,1,6,56,10,,,space,1.51746201515,,,002,lmw,59.9754338752,prodShadow,2015_Jul_12_1447,midd,
pname,bala,stim/bala.wav,1,7,57,3,,,space,1.30107212067,,,002,lmw,59.9754338752,prodShadow,2015_Jul_12_1447,midd,
target,piki,stim/piki.wav,1,8,58,38,,,space,1.36758804321,,,002,lmw,59.9754338752,prodShadow,2015_Jul_12_1447,midd,
pname,palo,stim/palo.wav,1,9,59,36,,,space,1.2676179409,,,002,lmw,59.9754338752,prodShadow,2015_Jul_12_1447,midd,
pname,bola,stim/bola.wav,1,10,60,7,,,space,1.45089697838,,,002,lmw,59.9754338752,prodShadow,2015_Jul_12_1447,midd,
distractor,uta,stim/uta.wav,1,11,61,49,,,space,1.43376302719,,,002,lmw,59.9754338752,prodShadow,2015_Jul_12_1447,midd,
distractor,ada,stim/ada.wav,1,12,62,0,,,space,1.33377313614,,,002,lmw,59.9754338752,prodShadow,2015_Jul_12_1447,midd,
target,daka,stim/daka.wav,1,13,63,12,,,space,1.43421316147,,,002,lmw,59.9754338752,prodShadow,2015_Jul_12_1447,midd,
target,taka,stim/taka.wav,1,14,64,43,,,space,1.50073385239,,,002,lmw,59.9754338752,prodShadow,2015_Jul_12_1447,midd,
target,tiki,stim/tiki.wav,1,15,65,45,,,space,1.60108613968,,,002,lmw,59.9754338752,prodShadow,2015_Jul_12_1447,midd,
target,tuku,stim/tuku.wav,1,16,66,48,,,space,1.53446006775,,,002,lmw,59.9754338752,prodShadow,2015_Jul_12_1447,midd,
target,gaka,stim/gaka.wav,1,17,67,20,,,space,1.65054106712,,,002,lmw,59.9754338752,prodShadow,2015_Jul_12_1447,midd,
target,koko,stim/koko.wav,1,18,68,31,,,space,1.63421416283,,,002,lmw,59.9754338752,prodShadow,2015_Jul_12_1447,midd,
pname,polo,stim/polo.wav,1,19,69,40,,,space,1.30080795288,,,002,lmw,59.9754338752,prodShadow,2015_Jul_12_1447,midd,
target,baka,stim/baka.wav,1,20,70,2,,,space,1.41758394241,,,002,lmw,59.9754338752,prodShadow,2015_Jul_12_1447,midd,
pname,topo,stim/topo.wav,1,21,71,46,,,space,1.13391399384,,,002,lmw,59.9754338752,prodShadow,2015_Jul_12_1447,midd,
distractor,oba,stim/oba.wav,1,22,72,33,,,space,1.56784486771,,,002,lmw,59.9754338752,prodShadow,2015_Jul_12_1447,midd,
target,deke,stim/deke.wav,1,23,73,13,,,space,1.65071702003,,,002,lmw,59.9754338752,prodShadow,2015_Jul_12_1447,midd,
target,poko,stim/poko.wav,1,24,74,39,,,space,1.55088615417,,,002,lmw,59.9754338752,prodShadow,2015_Jul_12_1447,midd,
pname,caca,stim/caca.wav,1,25,75,9,,,space,1.48434495926,,,002,lmw,59.9754338752,prodShadow,2015_Jul_12_1447,midd,
target,geke,stim/geke.wav,1,26,76,22,,,space,1.53395199776,,,002,lmw,59.9754338752,prodShadow,2015_Jul_12_1447,midd,
distractor,epa,stim/epa.wav,1,27,77,19,,,space,1.41684699059,,,002,lmw,59.9754338752,prodShadow,2015_Jul_12_1447,midd,
target,diki,stim/diki.wav,1,28,78,14,,,space,1.40054893494,,,002,lmw,59.9754338752,prodShadow,2015_Jul_12_1447,midd,
pname,dado,stim/dado.wav,1,29,79,11,,,space,1.58419299126,,,002,lmw,59.9754338752,prodShadow,2015_Jul_12_1447,midd,
pname,taco,stim/taco.wav,1,30,80,42,,,space,1.30101799965,,,002,lmw,59.9754338752,prodShadow,2015_Jul_12_1447,midd,
target,biki,stim/biki.wav,1,31,81,5,,,space,1.56702208519,,,002,lmw,59.9754338752,prodShadow,2015_Jul_12_1447,midd,
distractor,apa,stim/apa.wav,1,32,82,1,,,space,1.28421902657,,,002,lmw,59.9754338752,prodShadow,2015_Jul_12_1447,midd,
distractor,eda,stim/eda.wav,1,33,83,18,,,space,1.46724700928,,,002,lmw,59.9754338752,prodShadow,2015_Jul_12_1447,midd,
target,boko,stim/boko.wav,1,34,84,6,,,space,2.63425588608,,,002,lmw,59.9754338752,prodShadow,2015_Jul_12_1447,midd,
distractor,oka,stim/oka.wav,1,35,85,34,,,space,1.35044503212,,,002,lmw,59.9754338752,prodShadow,2015_Jul_12_1447,midd,
target,buku,stim/buku.wav,1,36,86,8,,,space,1.58340716362,,,002,lmw,59.9754338752,prodShadow,2015_Jul_12_1447,midd,
target,teke,stim/teke.wav,1,37,87,44,,,space,1.61813306808,,,002,lmw,59.9754338752,prodShadow,2015_Jul_12_1447,midd,
distractor,ita,stim/ita.wav,1,38,88,27,,,space,1.63470506668,,,002,lmw,59.9754338752,prodShadow,2015_Jul_12_1447,midd,
pname,gota,stim/gota.wav,1,39,89,25,,,space,1.83457183838,,,002,lmw,59.9754338752,prodShadow,2015_Jul_12_1447,midd,
target,puku,stim/puku.wav,1,40,90,41,,,space,1.61786699295,,,002,lmw,59.9754338752,prodShadow,2015_Jul_12_1447,midd,
target,kuku,stim/kuku.wav,1,41,91,32,,,space,1.75034379959,,,002,lmw,59.9754338752,prodShadow,2015_Jul_12_1447,midd,
target,toko,stim/toko.wav,1,42,92,47,,,space,1.83481788635,,,002,lmw,59.9754338752,prodShadow,2015_Jul_12_1447,midd,
pname,gato,stim/gato.wav,1,43,93,21,,,space,1.95099616051,,,002,lmw,59.9754338752,prodShadow,2015_Jul_12_1447,midd,
target,kiki,stim/kiki.wav,1,44,94,30,,,space,1.56793904305,,,002,lmw,59.9754338752,prodShadow,2015_Jul_12_1447,midd,
target,paka,stim/paka.wav,1,45,95,35,,,space,1.71767902374,,,002,lmw,59.9754338752,prodShadow,2015_Jul_12_1447,midd,
target,giki,stim/giki.wav,1,46,96,23,,,space,1.48409199715,,,002,lmw,59.9754338752,prodShadow,2015_Jul_12_1447,midd,
target,goko,stim/goko.wav,1,47,97,24,,,space,1.6343870163,,,002,lmw,59.9754338752,prodShadow,2015_Jul_12_1447,midd,
target,beke,stim/beke.wav,1,48,98,4,,,space,1.66816091537,,,002,lmw,59.9754338752,prodShadow,2015_Jul_12_1447,midd,
target,duku,stim/duku.wav,1,49,99,17,,,space,1.55059504509,,,002,lmw,59.9754338752,prodShadow,2015_Jul_12_1447,midd,
distractor,ita,stim/ita.wav,2,0,100,27,,,space,1.31766200066,,,002,lmw,59.9754338752,prodShadow,2015_Jul_12_1447,midd,
pname,polo,stim/polo.wav,2,1,101,40,,,space,1.41758513451,,,002,lmw,59.9754338752,prodShadow,2015_Jul_12_1447,midd,
distractor,eda,stim/eda.wav,2,2,102,18,,,space,1.20077896118,,,002,lmw,59.9754338752,prodShadow,2015_Jul_12_1447,midd,
pname,topo,stim/topo.wav,2,3,103,46,,,space,1.36803197861,,,002,lmw,59.9754338752,prodShadow,2015_Jul_12_1447,midd,
pname,palo,stim/palo.wav,2,4,104,36,,,space,1.21698498726,,,002,lmw,59.9754338752,prodShadow,2015_Jul_12_1447,midd,
target,keke,stim/keke.wav,2,5,105,29,,,space,1.30106091499,,,002,lmw,59.9754338752,prodShadow,2015_Jul_12_1447,midd,
target,gaka,stim/gaka.wav,2,6,106,20,,,space,1.25028181076,,,002,lmw,59.9754338752,prodShadow,2015_Jul_12_1447,midd,
target,peke,stim/peke.wav,2,7,107,37,,,space,1.2505838871,,,002,lmw,59.9754338752,prodShadow,2015_Jul_12_1447,midd,
target,tiki,stim/tiki.wav,2,8,108,45,,,space,1.1678340435,,,002,lmw,59.9754338752,prodShadow,2015_Jul_12_1447,midd,
distractor,epa,stim/epa.wav,2,9,109,19,,,space,1.36748409271,,,002,lmw,59.9754338752,prodShadow,2015_Jul_12_1447,midd,
target,biki,stim/biki.wav,2,10,110,5,,,space,1.63423109055,,,002,lmw,59.9754338752,prodShadow,2015_Jul_12_1447,midd,
target,giki,stim/giki.wav,2,11,111,23,,,space,1.46844005585,,,002,lmw,59.9754338752,prodShadow,2015_Jul_12_1447,midd,
target,kiki,stim/kiki.wav,2,12,112,30,,,space,1.70013594627,,,002,lmw,59.9754338752,prodShadow,2015_Jul_12_1447,midd,
target,puku,stim/puku.wav,2,13,113,41,,,space,1.30084991455,,,002,lmw,59.9754338752,prodShadow,2015_Jul_12_1447,midd,
distractor,apa,stim/apa.wav,2,14,114,1,,,space,1.23433303833,,,002,lmw,59.9754338752,prodShadow,2015_Jul_12_1447,midd,
target,doko,stim/doko.wav,2,15,115,16,,,space,1.35077309608,,,002,lmw,59.9754338752,prodShadow,2015_Jul_12_1447,midd,
distractor,oba,stim/oba.wav,2,16,116,33,,,space,1.25058698654,,,002,lmw,59.9754338752,prodShadow,2015_Jul_12_1447,midd,
pname,gota,stim/gota.wav,2,17,117,25,,,space,1.51670193672,,,002,lmw,59.9754338752,prodShadow,2015_Jul_12_1447,midd,
target,kuku,stim/kuku.wav,2,18,118,32,,,space,1.26711893082,,,002,lmw,59.9754338752,prodShadow,2015_Jul_12_1447,midd,
distractor,uta,stim/uta.wav,2,19,119,49,,,space,1.38425207138,,,002,lmw,59.9754338752,prodShadow,2015_Jul_12_1447,midd,
distractor,oka,stim/oka.wav,2,20,120,34,,,space,1.36773610115,,,002,lmw,59.9754338752,prodShadow,2015_Jul_12_1447,midd,
target,buku,stim/buku.wav,2,21,121,8,,,space,1.50145506859,,,002,lmw,59.9754338752,prodShadow,2015_Jul_12_1447,midd,
target,kaka,stim/kaka.wav,2,22,122,28,,,space,1.28479814529,,,002,lmw,59.9754338752,prodShadow,2015_Jul_12_1447,midd,
distractor,ada,stim/ada.wav,2,23,123,0,,,space,1.40017604828,,,002,lmw,59.9754338752,prodShadow,2015_Jul_12_1447,midd,
target,beke,stim/beke.wav,2,24,124,4,,,space,1.65076899529,,,002,lmw,59.9754338752,prodShadow,2015_Jul_12_1447,midd,
pname,gato,stim/gato.wav,2,25,125,21,,,space,1.60052394867,,,002,lmw,59.9754338752,prodShadow,2015_Jul_12_1447,midd,
target,tuku,stim/tuku.wav,2,26,126,48,,,space,1.3343269825,,,002,lmw,59.9754338752,prodShadow,2015_Jul_12_1447,midd,
target,taka,stim/taka.wav,2,27,127,43,,,space,1.46742081642,,,002,lmw,59.9754338752,prodShadow,2015_Jul_12_1447,midd,
pname,bala,stim/bala.wav,2,28,128,3,,,space,1.50058698654,,,002,lmw,59.9754338752,prodShadow,2015_Jul_12_1447,midd,
pname,dodo,stim/dodo.wav,2,29,129,15,,,space,1.45018815994,,,002,lmw,59.9754338752,prodShadow,2015_Jul_12_1447,midd,
target,boko,stim/boko.wav,2,30,130,6,,,space,1.75048613548,,,002,lmw,59.9754338752,prodShadow,2015_Jul_12_1447,midd,
target,guku,stim/guku.wav,2,31,131,26,,,space,1.58421897888,,,002,lmw,59.9754338752,prodShadow,2015_Jul_12_1447,midd,
target,deke,stim/deke.wav,2,32,132,13,,,space,1.56803798676,,,002,lmw,59.9754338752,prodShadow,2015_Jul_12_1447,midd,
pname,caca,stim/caca.wav,2,33,133,9,,,space,1.35141921043,,,002,lmw,59.9754338752,prodShadow,2015_Jul_12_1447,midd,
target,poko,stim/poko.wav,2,34,134,39,,,space,1.30057001114,,,002,lmw,59.9754338752,prodShadow,2015_Jul_12_1447,midd,
target,toko,stim/toko.wav,2,35,135,47,,,space,1.33347797394,,,002,lmw,59.9754338752,prodShadow,2015_Jul_12_1447,midd,
target,goko,stim/goko.wav,2,36,136,24,,,space,1.584400177,,,002,lmw,59.9754338752,prodShadow,2015_Jul_12_1447,midd,
target,duku,stim/duku.wav,2,37,137,17,,,space,1.61805796623,,,002,lmw,59.9754338752,prodShadow,2015_Jul_12_1447,midd,
pname,dado,stim/dado.wav,2,38,138,11,,,space,1.26768994331,,,002,lmw,59.9754338752,prodShadow,2015_Jul_12_1447,midd,
target,diki,stim/diki.wav,2,39,139,14,,,space,0.98453783989,,,002,lmw,59.9754338752,prodShadow,2015_Jul_12_1447,midd,
pname,coco,stim/coco.wav,2,40,140,10,,,space,1.23402500153,,,002,lmw,59.9754338752,prodShadow,2015_Jul_12_1447,midd,
target,piki,stim/piki.wav,2,41,141,38,,,space,1.25047183037,,,002,lmw,59.9754338752,prodShadow,2015_Jul_12_1447,midd,
target,daka,stim/daka.wav,2,42,142,12,,,space,1.23432087898,,,002,lmw,59.9754338752,prodShadow,2015_Jul_12_1447,midd,
target,geke,stim/geke.wav,2,43,143,22,,,space,1.35137081146,,,002,lmw,59.9754338752,prodShadow,2015_Jul_12_1447,midd,
target,teke,stim/teke.wav,2,44,144,44,,,space,1.43456315994,,,002,lmw,59.9754338752,prodShadow,2015_Jul_12_1447,midd,
target,baka,stim/baka.wav,2,45,145,2,,,space,1.35015201569,,,002,lmw,59.9754338752,prodShadow,2015_Jul_12_1447,midd,
pname,taco,stim/taco.wav,2,46,146,42,,,space,1.4002699852,,,002,lmw,59.9754338752,prodShadow,2015_Jul_12_1447,midd,
target,koko,stim/koko.wav,2,47,147,31,,,space,1.31789278984,,,002,lmw,59.9754338752,prodShadow,2015_Jul_12_1447,midd,
target,paka,stim/paka.wav,2,48,148,35,,,space,1.30103397369,,,002,lmw,59.9754338752,prodShadow,2015_Jul_12_1447,midd,
pname,bola,stim/bola.wav,2,49,149,7,,,space,1.45056605339,,,002,lmw,59.9754338752,prodShadow,2015_Jul_12_1447,midd,
,,,,,,,,,,,space,60.2572591305,002,lmw,59.9754338752,prodShadow,2015_Jul_12_1447,midd,
