status,stim,trials.thisRepN,trials.thisTrialN,trials.thisN,trials.thisIndex,key_resp_2.keys,key_resp_2.rt,session,participant,frameRate,expName,date,condition,
distractor,stim/silla.png,0,0,0,6,space,1.4515440464,002,alexiabi,60.1438242333,prodShadow,2015_Dec_09_1400,tuc,
target,stim/bola.png,0,1,1,9,space,0.771152973175,002,alexiabi,60.1438242333,prodShadow,2015_Dec_09_1400,tuc,
distractor,stim/arbol.png,0,2,2,2,space,0.81738781929,002,alexiabi,60.1438242333,prodShadow,2015_Dec_09_1400,tuc,
target,stim/dado.png,0,3,3,12,space,1.00053501129,002,alexiabi,60.1438242333,prodShadow,2015_Dec_09_1400,tuc,
distractor,stim/sol.png,0,4,4,1,space,0.734185934067,002,alexiabi,60.1438242333,prodShadow,2015_Dec_09_1400,tuc,
target,stim/gato.png,0,5,5,14,space,0.577425956726,002,alexiabi,60.1438242333,prodShadow,2015_Dec_09_1400,tuc,
distractor,stim/lapiz.png,0,6,6,3,space,0.950740098953,002,alexiabi,60.1438242333,prodShadow,2015_Dec_09_1400,tuc,
target,stim/caca.png,0,7,7,10,space,0.813426971436,002,alexiabi,60.1438242333,prodShadow,2015_Dec_09_1400,tuc,
distractor,stim/libro.png,0,8,8,5,space,0.767549037933,002,alexiabi,60.1438242333,prodShadow,2015_Dec_09_1400,tuc,
target,stim/topo.png,0,9,9,19,space,0.733645915985,002,alexiabi,60.1438242333,prodShadow,2015_Dec_09_1400,tuc,
target,stim/palo.png,0,10,10,16,space,0.883755922318,002,alexiabi,60.1438242333,prodShadow,2015_Dec_09_1400,tuc,
target,stim/bala.png,0,11,11,8,space,0.837442874908,002,alexiabi,60.1438242333,prodShadow,2015_Dec_09_1400,tuc,
target,stim/coco.png,0,12,12,11,space,0.797894954681,002,alexiabi,60.1438242333,prodShadow,2015_Dec_09_1400,tuc,
target,stim/dodo.png,0,13,13,13,space,1.21638298035,002,alexiabi,60.1438242333,prodShadow,2015_Dec_09_1400,tuc,
target,stim/polo.png,0,14,14,17,space,0.914008140564,002,alexiabi,60.1438242333,prodShadow,2015_Dec_09_1400,tuc,
target,stim/gota.png,0,15,15,15,space,0.483969926834,002,alexiabi,60.1438242333,prodShadow,2015_Dec_09_1400,tuc,
target,stim/taco.png,0,16,16,18,space,0.613891124725,002,alexiabi,60.1438242333,prodShadow,2015_Dec_09_1400,tuc,
distractor,stim/mochila.png,0,17,17,7,space,0.846899032593,002,alexiabi,60.1438242333,prodShadow,2015_Dec_09_1400,tuc,
distractor,stim/sombrero.png,0,18,18,0,space,0.883144140244,002,alexiabi,60.1438242333,prodShadow,2015_Dec_09_1400,tuc,
distractor,stim/manzana.png,0,19,19,4,space,0.753773212433,002,alexiabi,60.1438242333,prodShadow,2015_Dec_09_1400,tuc,
target,stim/gota.png,1,0,20,15,space,0.64771604538,002,alexiabi,60.1438242333,prodShadow,2015_Dec_09_1400,tuc,
target,stim/dado.png,1,1,21,12,space,0.717157125473,002,alexiabi,60.1438242333,prodShadow,2015_Dec_09_1400,tuc,
target,stim/gato.png,1,2,22,14,space,0.636865139008,002,alexiabi,60.1438242333,prodShadow,2015_Dec_09_1400,tuc,
target,stim/topo.png,1,3,23,19,space,0.667053937912,002,alexiabi,60.1438242333,prodShadow,2015_Dec_09_1400,tuc,
target,stim/palo.png,1,4,24,16,space,0.617054224014,002,alexiabi,60.1438242333,prodShadow,2015_Dec_09_1400,tuc,
target,stim/polo.png,1,5,25,17,space,0.587980985641,002,alexiabi,60.1438242333,prodShadow,2015_Dec_09_1400,tuc,
distractor,stim/libro.png,1,6,26,5,space,0.652909994125,002,alexiabi,60.1438242333,prodShadow,2015_Dec_09_1400,tuc,
target,stim/taco.png,1,7,27,18,space,0.701588869095,002,alexiabi,60.1438242333,prodShadow,2015_Dec_09_1400,tuc,
distractor,stim/arbol.png,1,8,28,2,space,0.61740899086,002,alexiabi,60.1438242333,prodShadow,2015_Dec_09_1400,tuc,
target,stim/caca.png,1,9,29,10,space,0.587625980377,002,alexiabi,60.1438242333,prodShadow,2015_Dec_09_1400,tuc,
distractor,stim/mochila.png,1,10,30,7,space,0.68440413475,002,alexiabi,60.1438242333,prodShadow,2015_Dec_09_1400,tuc,
target,stim/dodo.png,1,11,31,13,space,0.732903957367,002,alexiabi,60.1438242333,prodShadow,2015_Dec_09_1400,tuc,
target,stim/bala.png,1,12,32,8,space,0.654106140137,002,alexiabi,60.1438242333,prodShadow,2015_Dec_09_1400,tuc,
distractor,stim/sombrero.png,1,13,33,0,space,0.851020097733,002,alexiabi,60.1438242333,prodShadow,2015_Dec_09_1400,tuc,
distractor,stim/lapiz.png,1,14,34,3,space,0.504125833511,002,alexiabi,60.1438242333,prodShadow,2015_Dec_09_1400,tuc,
distractor,stim/manzana.png,1,15,35,4,space,0.817399024963,002,alexiabi,60.1438242333,prodShadow,2015_Dec_09_1400,tuc,
distractor,stim/sol.png,1,16,36,1,space,0.770946025848,002,alexiabi,60.1438242333,prodShadow,2015_Dec_09_1400,tuc,
target,stim/bola.png,1,17,37,9,space,0.663354158401,002,alexiabi,60.1438242333,prodShadow,2015_Dec_09_1400,tuc,
target,stim/coco.png,1,18,38,11,space,0.683112859726,002,alexiabi,60.1438242333,prodShadow,2015_Dec_09_1400,tuc,
distractor,stim/silla.png,1,19,39,6,space,0.849740982056,002,alexiabi,60.1438242333,prodShadow,2015_Dec_09_1400,tuc,
target,stim/topo.png,2,0,40,19,space,0.766705989838,002,alexiabi,60.1438242333,prodShadow,2015_Dec_09_1400,tuc,
distractor,stim/arbol.png,2,1,41,2,space,0.44845199585,002,alexiabi,60.1438242333,prodShadow,2015_Dec_09_1400,tuc,
target,stim/bola.png,2,2,42,9,space,0.588294029236,002,alexiabi,60.1438242333,prodShadow,2015_Dec_09_1400,tuc,
target,stim/dodo.png,2,3,43,13,space,0.813924074173,002,alexiabi,60.1438242333,prodShadow,2015_Dec_09_1400,tuc,
distractor,stim/lapiz.png,2,4,44,3,space,0.750496864319,002,alexiabi,60.1438242333,prodShadow,2015_Dec_09_1400,tuc,
distractor,stim/sombrero.png,2,5,45,0,space,0.833652973175,002,alexiabi,60.1438242333,prodShadow,2015_Dec_09_1400,tuc,
target,stim/polo.png,2,6,46,17,space,0.613769054413,002,alexiabi,60.1438242333,prodShadow,2015_Dec_09_1400,tuc,
distractor,stim/libro.png,2,7,47,5,space,0.63128900528,002,alexiabi,60.1438242333,prodShadow,2015_Dec_09_1400,tuc,
target,stim/palo.png,2,8,48,16,space,0.917398929596,002,alexiabi,60.1438242333,prodShadow,2015_Dec_09_1400,tuc,
target,stim/dado.png,2,9,49,12,space,0.800451040268,002,alexiabi,60.1438242333,prodShadow,2015_Dec_09_1400,tuc,
target,stim/gota.png,2,10,50,15,space,0.733953952789,002,alexiabi,60.1438242333,prodShadow,2015_Dec_09_1400,tuc,
target,stim/bala.png,2,11,51,8,space,0.767003059387,002,alexiabi,60.1438242333,prodShadow,2015_Dec_09_1400,tuc,
distractor,stim/mochila.png,2,12,52,7,space,0.267993927002,002,alexiabi,60.1438242333,prodShadow,2015_Dec_09_1400,tuc,
target,stim/taco.png,2,13,53,18,space,1.10028815269,002,alexiabi,60.1438242333,prodShadow,2015_Dec_09_1400,tuc,
target,stim/coco.png,2,14,54,11,space,0.716835021973,002,alexiabi,60.1438242333,prodShadow,2015_Dec_09_1400,tuc,
distractor,stim/silla.png,2,15,55,6,space,0.613800048828,002,alexiabi,60.1438242333,prodShadow,2015_Dec_09_1400,tuc,
distractor,stim/sol.png,2,16,56,1,space,0.634536027908,002,alexiabi,60.1438242333,prodShadow,2015_Dec_09_1400,tuc,
target,stim/caca.png,2,17,57,10,space,0.466998815536,002,alexiabi,60.1438242333,prodShadow,2015_Dec_09_1400,tuc,
target,stim/gato.png,2,18,58,14,space,0.817358016968,002,alexiabi,60.1438242333,prodShadow,2015_Dec_09_1400,tuc,
distractor,stim/manzana.png,2,19,59,4,space,0.700412988663,002,alexiabi,60.1438242333,prodShadow,2015_Dec_09_1400,tuc,
