status,stim,trials.thisRepN,trials.thisTrialN,trials.thisN,trials.thisIndex,key_resp_2.keys,key_resp_2.rt,key_resp_4.keys,key_resp_4.rt,session,participant,frameRate,expName,date,condition,
target,stim/gato.png,0,0,0,14,space,1.58444094658,,,001,luciabi,60.0860110307,prodShadow,2015_Dec_03_1405,tuc,
distractor,stim/sol.png,0,1,1,1,space,1.01626491547,,,001,luciabi,60.0860110307,prodShadow,2015_Dec_03_1405,tuc,
target,stim/gota.png,0,2,2,15,space,0.983146905899,,,001,luciabi,60.0860110307,prodShadow,2015_Dec_03_1405,tuc,
target,stim/polo.png,0,3,3,17,space,1.050593853,,,001,luciabi,60.0860110307,prodShadow,2015_Dec_03_1405,tuc,
distractor,stim/sombrero.png,0,4,4,0,space,1.96761488914,,,001,luciabi,60.0860110307,prodShadow,2015_Dec_03_1405,tuc,
target,stim/palo.png,0,5,5,16,space,1.36740589142,,,001,luciabi,60.0860110307,prodShadow,2015_Dec_03_1405,tuc,
target,stim/topo.png,0,6,6,19,space,0.88326215744,,,001,luciabi,60.0860110307,prodShadow,2015_Dec_03_1405,tuc,
distractor,stim/mochila.png,0,7,7,7,space,1.08079695702,,,001,luciabi,60.0860110307,prodShadow,2015_Dec_03_1405,tuc,
target,stim/taco.png,0,8,8,18,space,0.967428922653,,,001,luciabi,60.0860110307,prodShadow,2015_Dec_03_1405,tuc,
target,stim/dado.png,0,9,9,12,space,1.32111501694,,,001,luciabi,60.0860110307,prodShadow,2015_Dec_03_1405,tuc,
distractor,stim/arbol.png,0,10,10,2,space,1.01971793175,,,001,luciabi,60.0860110307,prodShadow,2015_Dec_03_1405,tuc,
target,stim/caca.png,0,11,11,10,space,1.13786697388,,,001,luciabi,60.0860110307,prodShadow,2015_Dec_03_1405,tuc,
distractor,stim/manzana.png,0,12,12,4,space,0.950197935104,,,001,luciabi,60.0860110307,prodShadow,2015_Dec_03_1405,tuc,
target,stim/bala.png,0,13,13,8,space,1.21757817268,,,001,luciabi,60.0860110307,prodShadow,2015_Dec_03_1405,tuc,
distractor,stim/silla.png,0,14,14,6,space,1.11758208275,,,001,luciabi,60.0860110307,prodShadow,2015_Dec_03_1405,tuc,
target,stim/dodo.png,0,15,15,13,space,2.03364682198,,,001,luciabi,60.0860110307,prodShadow,2015_Dec_03_1405,tuc,
target,stim/bola.png,0,16,16,9,space,1.81763792038,,,001,luciabi,60.0860110307,prodShadow,2015_Dec_03_1405,tuc,
distractor,stim/lapiz.png,0,17,17,3,space,0.984133005142,,,001,luciabi,60.0860110307,prodShadow,2015_Dec_03_1405,tuc,
distractor,stim/libro.png,0,18,18,5,space,1.18385505676,,,001,luciabi,60.0860110307,prodShadow,2015_Dec_03_1405,tuc,
target,stim/coco.png,0,19,19,11,space,1.58409309387,,,001,luciabi,60.0860110307,prodShadow,2015_Dec_03_1405,tuc,
distractor,stim/lapiz.png,1,0,20,3,space,1.58067297935,,,001,luciabi,60.0860110307,prodShadow,2015_Dec_03_1405,tuc,
target,stim/caca.png,1,1,21,10,space,1.00071501732,,,001,luciabi,60.0860110307,prodShadow,2015_Dec_03_1405,tuc,
target,stim/gota.png,1,2,22,15,space,1.1676428318,,,001,luciabi,60.0860110307,prodShadow,2015_Dec_03_1405,tuc,
distractor,stim/libro.png,1,3,23,5,space,1.01737713814,,,001,luciabi,60.0860110307,prodShadow,2015_Dec_03_1405,tuc,
target,stim/polo.png,1,4,24,17,space,0.784162998199,,,001,luciabi,60.0860110307,prodShadow,2015_Dec_03_1405,tuc,
target,stim/gato.png,1,5,25,14,space,0.953839063644,,,001,luciabi,60.0860110307,prodShadow,2015_Dec_03_1405,tuc,
target,stim/dodo.png,1,6,26,13,space,0.967683076859,,,001,luciabi,60.0860110307,prodShadow,2015_Dec_03_1405,tuc,
distractor,stim/arbol.png,1,7,27,2,space,0.768232107162,,,001,luciabi,60.0860110307,prodShadow,2015_Dec_03_1405,tuc,
distractor,stim/silla.png,1,8,28,6,space,0.900874853134,,,001,luciabi,60.0860110307,prodShadow,2015_Dec_03_1405,tuc,
target,stim/palo.png,1,9,29,16,space,1.11741018295,,,001,luciabi,60.0860110307,prodShadow,2015_Dec_03_1405,tuc,
target,stim/dado.png,1,10,30,12,space,0.783832073212,,,001,luciabi,60.0860110307,prodShadow,2015_Dec_03_1405,tuc,
target,stim/coco.png,1,11,31,11,space,1.1173210144,,,001,luciabi,60.0860110307,prodShadow,2015_Dec_03_1405,tuc,
distractor,stim/sombrero.png,1,12,32,0,space,1.10021185875,,,001,luciabi,60.0860110307,prodShadow,2015_Dec_03_1405,tuc,
target,stim/topo.png,1,13,33,19,space,0.884472131729,,,001,luciabi,60.0860110307,prodShadow,2015_Dec_03_1405,tuc,
target,stim/bola.png,1,14,34,9,space,0.834897041321,,,001,luciabi,60.0860110307,prodShadow,2015_Dec_03_1405,tuc,
distractor,stim/manzana.png,1,15,35,4,space,2.06708598137,,,001,luciabi,60.0860110307,prodShadow,2015_Dec_03_1405,tuc,
target,stim/taco.png,1,16,36,18,space,0.880903959274,,,001,luciabi,60.0860110307,prodShadow,2015_Dec_03_1405,tuc,
target,stim/bala.png,1,17,37,8,space,0.967531919479,,,001,luciabi,60.0860110307,prodShadow,2015_Dec_03_1405,tuc,
distractor,stim/mochila.png,1,18,38,7,space,0.967587947845,,,001,luciabi,60.0860110307,prodShadow,2015_Dec_03_1405,tuc,
distractor,stim/sol.png,1,19,39,1,space,0.817275047302,,,001,luciabi,60.0860110307,prodShadow,2015_Dec_03_1405,tuc,
target,stim/palo.png,2,0,40,16,space,0.917500019073,,,001,luciabi,60.0860110307,prodShadow,2015_Dec_03_1405,tuc,
distractor,stim/libro.png,2,1,41,5,space,1.11434793472,,,001,luciabi,60.0860110307,prodShadow,2015_Dec_03_1405,tuc,
target,stim/polo.png,2,2,42,17,space,1.05066895485,,,001,luciabi,60.0860110307,prodShadow,2015_Dec_03_1405,tuc,
distractor,stim/silla.png,2,3,43,6,space,1.66744709015,,,001,luciabi,60.0860110307,prodShadow,2015_Dec_03_1405,tuc,
target,stim/caca.png,2,4,44,10,space,1.03191304207,,,001,luciabi,60.0860110307,prodShadow,2015_Dec_03_1405,tuc,
distractor,stim/sol.png,2,5,45,1,space,0.817546129227,,,001,luciabi,60.0860110307,prodShadow,2015_Dec_03_1405,tuc,
target,stim/coco.png,2,6,46,11,space,1.10063791275,,,001,luciabi,60.0860110307,prodShadow,2015_Dec_03_1405,tuc,
target,stim/bala.png,2,7,47,8,space,0.817338943481,,,001,luciabi,60.0860110307,prodShadow,2015_Dec_03_1405,tuc,
distractor,stim/manzana.png,2,8,48,4,space,1.01738905907,,,001,luciabi,60.0860110307,prodShadow,2015_Dec_03_1405,tuc,
target,stim/topo.png,2,9,49,19,space,0.784795999527,,,001,luciabi,60.0860110307,prodShadow,2015_Dec_03_1405,tuc,
target,stim/bola.png,2,10,50,9,space,0.863421916962,,,001,luciabi,60.0860110307,prodShadow,2015_Dec_03_1405,tuc,
target,stim/dado.png,2,11,51,12,space,1.01719212532,,,001,luciabi,60.0860110307,prodShadow,2015_Dec_03_1405,tuc,
distractor,stim/sombrero.png,2,12,52,0,space,1.06975102425,,,001,luciabi,60.0860110307,prodShadow,2015_Dec_03_1405,tuc,
target,stim/gota.png,2,13,53,15,space,1.15040493011,,,001,luciabi,60.0860110307,prodShadow,2015_Dec_03_1405,tuc,
distractor,stim/arbol.png,2,14,54,2,space,0.997447967529,,,001,luciabi,60.0860110307,prodShadow,2015_Dec_03_1405,tuc,
distractor,stim/lapiz.png,2,15,55,3,space,1.08014202118,,,001,luciabi,60.0860110307,prodShadow,2015_Dec_03_1405,tuc,
target,stim/taco.png,2,16,56,18,space,0.784805059433,,,001,luciabi,60.0860110307,prodShadow,2015_Dec_03_1405,tuc,
distractor,stim/mochila.png,2,17,57,7,space,0.918021202087,,,001,luciabi,60.0860110307,prodShadow,2015_Dec_03_1405,tuc,
target,stim/gato.png,2,18,58,14,space,0.851229190826,,,001,luciabi,60.0860110307,prodShadow,2015_Dec_03_1405,tuc,
target,stim/dodo.png,2,19,59,13,space,1.01756882668,,,001,luciabi,60.0860110307,prodShadow,2015_Dec_03_1405,tuc,
,,,,,,,,space,1.80006694794,001,luciabi,60.0860110307,prodShadow,2015_Dec_03_1405,tuc,
