status,text,stim,trials.thisRepN,trials.thisTrialN,trials.thisN,trials.thisIndex,key_resp_3.keys,key_resp_3.rt,key_resp_2.keys,key_resp_2.rt,key_resp_4.keys,key_resp_4.rt,session,participant,frameRate,expName,date,condition,
,,,,,,,space,2.33441305161,,,,,001,alexiabi,59.9703744374,prodShadow,2015_Dec_03_1349,tuc,
target,peke,stim/peke.wav,0,0,0,37,,,space,8.31917905807,,,001,alexiabi,59.9703744374,prodShadow,2015_Dec_03_1349,tuc,
pname,caca,stim/caca.wav,0,1,1,9,,,space,2.48405790329,,,001,alexiabi,59.9703744374,prodShadow,2015_Dec_03_1349,tuc,
target,kaka,stim/kaka.wav,0,2,2,28,,,space,1.76413488388,,,001,alexiabi,59.9703744374,prodShadow,2015_Dec_03_1349,tuc,
target,buku,stim/buku.wav,0,3,3,8,,,space,1.50109696388,,,001,alexiabi,59.9703744374,prodShadow,2015_Dec_03_1349,tuc,
target,diki,stim/diki.wav,0,4,4,14,,,space,1.00090193748,,,001,alexiabi,59.9703744374,prodShadow,2015_Dec_03_1349,tuc,
distractor,apa,stim/apa.wav,0,5,5,1,,,space,0.867297887802,,,001,alexiabi,59.9703744374,prodShadow,2015_Dec_03_1349,tuc,
target,duku,stim/duku.wav,0,6,6,17,,,space,1.03439211845,,,001,alexiabi,59.9703744374,prodShadow,2015_Dec_03_1349,tuc,
distractor,oba,stim/oba.wav,0,7,7,33,,,space,1.10107684135,,,001,alexiabi,59.9703744374,prodShadow,2015_Dec_03_1349,tuc,
target,beke,stim/beke.wav,0,8,8,4,,,space,0.784024953842,,,001,alexiabi,59.9703744374,prodShadow,2015_Dec_03_1349,tuc,
target,toko,stim/toko.wav,0,9,9,47,,,space,1.0306429863,,,001,alexiabi,59.9703744374,prodShadow,2015_Dec_03_1349,tuc,
target,biki,stim/biki.wav,0,10,10,5,,,space,0.786974906921,,,001,alexiabi,59.9703744374,prodShadow,2015_Dec_03_1349,tuc,
target,keke,stim/keke.wav,0,11,11,29,,,space,0.796817064285,,,001,alexiabi,59.9703744374,prodShadow,2015_Dec_03_1349,tuc,
distractor,ada,stim/ada.wav,0,12,12,0,,,space,0.900628089905,,,001,alexiabi,59.9703744374,prodShadow,2015_Dec_03_1349,tuc,
distractor,eda,stim/eda.wav,0,13,13,18,,,space,0.985352039337,,,001,alexiabi,59.9703744374,prodShadow,2015_Dec_03_1349,tuc,
target,deke,stim/deke.wav,0,14,14,13,,,space,0.870789051056,,,001,alexiabi,59.9703744374,prodShadow,2015_Dec_03_1349,tuc,
target,baka,stim/baka.wav,0,15,15,2,,,space,0.633990049362,,,001,alexiabi,59.9703744374,prodShadow,2015_Dec_03_1349,tuc,
pname,palo,stim/palo.wav,0,16,16,36,,,space,0.733761072159,,,001,alexiabi,59.9703744374,prodShadow,2015_Dec_03_1349,tuc,
pname,topo,stim/topo.wav,0,17,17,46,,,space,0.713459014893,,,001,alexiabi,59.9703744374,prodShadow,2015_Dec_03_1349,tuc,
distractor,ita,stim/ita.wav,0,18,18,27,,,space,0.550049066544,,,001,alexiabi,59.9703744374,prodShadow,2015_Dec_03_1349,tuc,
target,kuku,stim/kuku.wav,0,19,19,32,,,space,0.870543956757,,,001,alexiabi,59.9703744374,prodShadow,2015_Dec_03_1349,tuc,
target,tuku,stim/tuku.wav,0,20,20,48,,,space,0.747349023819,,,001,alexiabi,59.9703744374,prodShadow,2015_Dec_03_1349,tuc,
pname,dado,stim/dado.wav,0,21,21,11,,,space,0.85027718544,,,001,alexiabi,59.9703744374,prodShadow,2015_Dec_03_1349,tuc,
target,piki,stim/piki.wav,0,22,22,38,,,space,0.763726949692,,,001,alexiabi,59.9703744374,prodShadow,2015_Dec_03_1349,tuc,
target,koko,stim/koko.wav,0,23,23,31,,,space,0.700086116791,,,001,alexiabi,59.9703744374,prodShadow,2015_Dec_03_1349,tuc,
pname,coco,stim/coco.wav,0,24,24,10,,,space,0.913651943207,,,001,alexiabi,59.9703744374,prodShadow,2015_Dec_03_1349,tuc,
target,kiki,stim/kiki.wav,0,25,25,30,,,space,0.867026090622,,,001,alexiabi,59.9703744374,prodShadow,2015_Dec_03_1349,tuc,
target,paka,stim/paka.wav,0,26,26,35,,,space,0.717232942581,,,001,alexiabi,59.9703744374,prodShadow,2015_Dec_03_1349,tuc,
target,boko,stim/boko.wav,0,27,27,6,,,space,0.820833921432,,,001,alexiabi,59.9703744374,prodShadow,2015_Dec_03_1349,tuc,
pname,gato,stim/gato.wav,0,28,28,21,,,space,0.584019899368,,,001,alexiabi,59.9703744374,prodShadow,2015_Dec_03_1349,tuc,
pname,dodo,stim/dodo.wav,0,29,29,15,,,space,0.717489004135,,,001,alexiabi,59.9703744374,prodShadow,2015_Dec_03_1349,tuc,
target,goko,stim/goko.wav,0,30,30,24,,,space,0.800498962402,,,001,alexiabi,59.9703744374,prodShadow,2015_Dec_03_1349,tuc,
target,tiki,stim/tiki.wav,0,31,31,45,,,space,0.667485952377,,,001,alexiabi,59.9703744374,prodShadow,2015_Dec_03_1349,tuc,
distractor,epa,stim/epa.wav,0,32,32,19,,,space,0.637333869934,,,001,alexiabi,59.9703744374,prodShadow,2015_Dec_03_1349,tuc,
target,doko,stim/doko.wav,0,33,33,16,,,space,0.90044593811,,,001,alexiabi,59.9703744374,prodShadow,2015_Dec_03_1349,tuc,
target,guku,stim/guku.wav,0,34,34,26,,,space,0.66724896431,,,001,alexiabi,59.9703744374,prodShadow,2015_Dec_03_1349,tuc,
distractor,uta,stim/uta.wav,0,35,35,49,,,space,0.933911085129,,,001,alexiabi,59.9703744374,prodShadow,2015_Dec_03_1349,tuc,
target,geke,stim/geke.wav,0,36,36,22,,,space,1.184278965,,,001,alexiabi,59.9703744374,prodShadow,2015_Dec_03_1349,tuc,
target,taka,stim/taka.wav,0,37,37,43,,,space,0.867359161377,,,001,alexiabi,59.9703744374,prodShadow,2015_Dec_03_1349,tuc,
pname,taco,stim/taco.wav,0,38,38,42,,,space,0.950823068619,,,001,alexiabi,59.9703744374,prodShadow,2015_Dec_03_1349,tuc,
pname,polo,stim/polo.wav,0,39,39,40,,,space,0.554270982742,,,001,alexiabi,59.9703744374,prodShadow,2015_Dec_03_1349,tuc,
target,daka,stim/daka.wav,0,40,40,12,,,space,0.633740901947,,,001,alexiabi,59.9703744374,prodShadow,2015_Dec_03_1349,tuc,
pname,gota,stim/gota.wav,0,41,41,25,,,space,0.717936038971,,,001,alexiabi,59.9703744374,prodShadow,2015_Dec_03_1349,tuc,
target,giki,stim/giki.wav,0,42,42,23,,,space,0.803513050079,,,001,alexiabi,59.9703744374,prodShadow,2015_Dec_03_1349,tuc,
target,puku,stim/puku.wav,0,43,43,41,,,space,13.0693871975,,,001,alexiabi,59.9703744374,prodShadow,2015_Dec_03_1349,tuc,
target,poko,stim/poko.wav,0,44,44,39,,,space,0.750550031662,,,001,alexiabi,59.9703744374,prodShadow,2015_Dec_03_1349,tuc,
pname,bala,stim/bala.wav,0,45,45,3,,,space,0.800555944443,,,001,alexiabi,59.9703744374,prodShadow,2015_Dec_03_1349,tuc,
target,gaka,stim/gaka.wav,0,46,46,20,,,space,0.796982049942,,,001,alexiabi,59.9703744374,prodShadow,2015_Dec_03_1349,tuc,
pname,bola,stim/bola.wav,0,47,47,7,,,space,0.587530136108,,,001,alexiabi,59.9703744374,prodShadow,2015_Dec_03_1349,tuc,
distractor,oka,stim/oka.wav,0,48,48,34,,,space,1.01350092888,,,001,alexiabi,59.9703744374,prodShadow,2015_Dec_03_1349,tuc,
target,teke,stim/teke.wav,0,49,49,44,,,space,0.650382041931,,,001,alexiabi,59.9703744374,prodShadow,2015_Dec_03_1349,tuc,
target,keke,stim/keke.wav,1,0,50,29,,,space,0.467169046402,,,001,alexiabi,59.9703744374,prodShadow,2015_Dec_03_1349,tuc,
distractor,epa,stim/epa.wav,1,1,51,19,,,space,0.834171056747,,,001,alexiabi,59.9703744374,prodShadow,2015_Dec_03_1349,tuc,
target,daka,stim/daka.wav,1,2,52,12,,,space,0.650516033173,,,001,alexiabi,59.9703744374,prodShadow,2015_Dec_03_1349,tuc,
pname,bola,stim/bola.wav,1,3,53,7,,,space,0.717655897141,,,001,alexiabi,59.9703744374,prodShadow,2015_Dec_03_1349,tuc,
pname,dodo,stim/dodo.wav,1,4,54,15,,,space,0.680225849152,,,001,alexiabi,59.9703744374,prodShadow,2015_Dec_03_1349,tuc,
target,buku,stim/buku.wav,1,5,55,8,,,space,0.584029912949,,,001,alexiabi,59.9703744374,prodShadow,2015_Dec_03_1349,tuc,
target,deke,stim/deke.wav,1,6,56,13,,,space,0.500049829483,,,001,alexiabi,59.9703744374,prodShadow,2015_Dec_03_1349,tuc,
pname,palo,stim/palo.wav,1,7,57,36,,,space,0.600750923157,,,001,alexiabi,59.9703744374,prodShadow,2015_Dec_03_1349,tuc,
distractor,apa,stim/apa.wav,1,8,58,1,,,space,0.767641067505,,,001,alexiabi,59.9703744374,prodShadow,2015_Dec_03_1349,tuc,
pname,gota,stim/gota.wav,1,9,59,25,,,space,0.767060041428,,,001,alexiabi,59.9703744374,prodShadow,2015_Dec_03_1349,tuc,
target,taka,stim/taka.wav,1,10,60,43,,,space,0.567342042923,,,001,alexiabi,59.9703744374,prodShadow,2015_Dec_03_1349,tuc,
pname,bala,stim/bala.wav,1,11,61,3,,,space,0.570857048035,,,001,alexiabi,59.9703744374,prodShadow,2015_Dec_03_1349,tuc,
target,giki,stim/giki.wav,1,12,62,23,,,space,3.00101089478,,,001,alexiabi,59.9703744374,prodShadow,2015_Dec_03_1349,tuc,
pname,caca,stim/caca.wav,1,13,63,9,,,space,0.700387954712,,,001,alexiabi,59.9703744374,prodShadow,2015_Dec_03_1349,tuc,
distractor,oka,stim/oka.wav,1,14,64,34,,,space,0.433964014053,,,001,alexiabi,59.9703744374,prodShadow,2015_Dec_03_1349,tuc,
target,diki,stim/diki.wav,1,15,65,14,,,space,0.700959920883,,,001,alexiabi,59.9703744374,prodShadow,2015_Dec_03_1349,tuc,
target,peke,stim/peke.wav,1,16,66,37,,,space,0.46709394455,,,001,alexiabi,59.9703744374,prodShadow,2015_Dec_03_1349,tuc,
pname,coco,stim/coco.wav,1,17,67,10,,,space,0.567159891129,,,001,alexiabi,59.9703744374,prodShadow,2015_Dec_03_1349,tuc,
distractor,eda,stim/eda.wav,1,18,68,18,,,space,0.700346946716,,,001,alexiabi,59.9703744374,prodShadow,2015_Dec_03_1349,tuc,
target,duku,stim/duku.wav,1,19,69,17,,,space,0.567041873932,,,001,alexiabi,59.9703744374,prodShadow,2015_Dec_03_1349,tuc,
target,puku,stim/puku.wav,1,20,70,41,,,space,0.650538921356,,,001,alexiabi,59.9703744374,prodShadow,2015_Dec_03_1349,tuc,
pname,dado,stim/dado.wav,1,21,71,11,,,space,0.600625038147,,,001,alexiabi,59.9703744374,prodShadow,2015_Dec_03_1349,tuc,
target,koko,stim/koko.wav,1,22,72,31,,,space,0.68027806282,,,001,alexiabi,59.9703744374,prodShadow,2015_Dec_03_1349,tuc,
target,geke,stim/geke.wav,1,23,73,22,,,space,1.08417606354,,,001,alexiabi,59.9703744374,prodShadow,2015_Dec_03_1349,tuc,
target,guku,stim/guku.wav,1,24,74,26,,,space,2.22091794014,,,001,alexiabi,59.9703744374,prodShadow,2015_Dec_03_1349,tuc,
target,boko,stim/boko.wav,1,25,75,6,,,space,0.817179918289,,,001,alexiabi,59.9703744374,prodShadow,2015_Dec_03_1349,tuc,
target,gaka,stim/gaka.wav,1,26,76,20,,,space,0.533905029297,,,001,alexiabi,59.9703744374,prodShadow,2015_Dec_03_1349,tuc,
target,kuku,stim/kuku.wav,1,27,77,32,,,space,1.00095891953,,,001,alexiabi,59.9703744374,prodShadow,2015_Dec_03_1349,tuc,
target,kiki,stim/kiki.wav,1,28,78,30,,,space,0.854044914246,,,001,alexiabi,59.9703744374,prodShadow,2015_Dec_03_1349,tuc,
target,piki,stim/piki.wav,1,29,79,38,,,space,0.667331933975,,,001,alexiabi,59.9703744374,prodShadow,2015_Dec_03_1349,tuc,
pname,topo,stim/topo.wav,1,30,80,46,,,space,0.650640010834,,,001,alexiabi,59.9703744374,prodShadow,2015_Dec_03_1349,tuc,
target,kaka,stim/kaka.wav,1,31,81,28,,,space,0.766813993454,,,001,alexiabi,59.9703744374,prodShadow,2015_Dec_03_1349,tuc,
target,beke,stim/beke.wav,1,32,82,4,,,space,0.500212907791,,,001,alexiabi,59.9703744374,prodShadow,2015_Dec_03_1349,tuc,
target,toko,stim/toko.wav,1,33,83,47,,,space,0.721077919006,,,001,alexiabi,59.9703744374,prodShadow,2015_Dec_03_1349,tuc,
distractor,uta,stim/uta.wav,1,34,84,49,,,space,0.418751001358,,,001,alexiabi,59.9703744374,prodShadow,2015_Dec_03_1349,tuc,
target,tiki,stim/tiki.wav,1,35,85,45,,,space,0.833840847015,,,001,alexiabi,59.9703744374,prodShadow,2015_Dec_03_1349,tuc,
target,paka,stim/paka.wav,1,36,86,35,,,space,0.50120306015,,,001,alexiabi,59.9703744374,prodShadow,2015_Dec_03_1349,tuc,
pname,taco,stim/taco.wav,1,37,87,42,,,space,0.703967094421,,,001,alexiabi,59.9703744374,prodShadow,2015_Dec_03_1349,tuc,
target,tuku,stim/tuku.wav,1,38,88,48,,,space,0.800372123718,,,001,alexiabi,59.9703744374,prodShadow,2015_Dec_03_1349,tuc,
distractor,oba,stim/oba.wav,1,39,89,33,,,space,0.23347902298,,,001,alexiabi,59.9703744374,prodShadow,2015_Dec_03_1349,tuc,
target,goko,stim/goko.wav,1,40,90,24,,,space,1.16708517075,,,001,alexiabi,59.9703744374,prodShadow,2015_Dec_03_1349,tuc,
distractor,ita,stim/ita.wav,1,41,91,27,,,space,0.754242897034,,,001,alexiabi,59.9703744374,prodShadow,2015_Dec_03_1349,tuc,
pname,gato,stim/gato.wav,1,42,92,21,,,space,0.637172222137,,,001,alexiabi,59.9703744374,prodShadow,2015_Dec_03_1349,tuc,
target,poko,stim/poko.wav,1,43,93,39,,,space,0.717420101166,,,001,alexiabi,59.9703744374,prodShadow,2015_Dec_03_1349,tuc,
distractor,ada,stim/ada.wav,1,44,94,0,,,space,0.517440795898,,,001,alexiabi,59.9703744374,prodShadow,2015_Dec_03_1349,tuc,
target,doko,stim/doko.wav,1,45,95,16,,,space,0.687367916107,,,001,alexiabi,59.9703744374,prodShadow,2015_Dec_03_1349,tuc,
target,biki,stim/biki.wav,1,46,96,5,,,space,0.520218849182,,,001,alexiabi,59.9703744374,prodShadow,2015_Dec_03_1349,tuc,
target,baka,stim/baka.wav,1,47,97,2,,,space,1.23414206505,,,001,alexiabi,59.9703744374,prodShadow,2015_Dec_03_1349,tuc,
target,teke,stim/teke.wav,1,48,98,44,,,space,0.583652019501,,,001,alexiabi,59.9703744374,prodShadow,2015_Dec_03_1349,tuc,
pname,polo,stim/polo.wav,1,49,99,40,,,space,0.620850086212,,,001,alexiabi,59.9703744374,prodShadow,2015_Dec_03_1349,tuc,
target,duku,stim/duku.wav,2,0,100,17,,,space,0.604508161545,,,001,alexiabi,59.9703744374,prodShadow,2015_Dec_03_1349,tuc,
target,koko,stim/koko.wav,2,1,101,31,,,space,0.600448846817,,,001,alexiabi,59.9703744374,prodShadow,2015_Dec_03_1349,tuc,
target,geke,stim/geke.wav,2,2,102,22,,,space,0.934036970139,,,001,alexiabi,59.9703744374,prodShadow,2015_Dec_03_1349,tuc,
distractor,uta,stim/uta.wav,2,3,103,49,,,space,0.630105018616,,,001,alexiabi,59.9703744374,prodShadow,2015_Dec_03_1349,tuc,
distractor,eda,stim/eda.wav,2,4,104,18,,,space,0.60055398941,,,001,alexiabi,59.9703744374,prodShadow,2015_Dec_03_1349,tuc,
pname,polo,stim/polo.wav,2,5,105,40,,,space,0.517268896103,,,001,alexiabi,59.9703744374,prodShadow,2015_Dec_03_1349,tuc,
target,piki,stim/piki.wav,2,6,106,38,,,space,0.637406826019,,,001,alexiabi,59.9703744374,prodShadow,2015_Dec_03_1349,tuc,
pname,gato,stim/gato.wav,2,7,107,21,,,space,0.487565994263,,,001,alexiabi,59.9703744374,prodShadow,2015_Dec_03_1349,tuc,
distractor,oka,stim/oka.wav,2,8,108,34,,,space,0.621049880981,,,001,alexiabi,59.9703744374,prodShadow,2015_Dec_03_1349,tuc,
target,deke,stim/deke.wav,2,9,109,13,,,space,0.43389415741,,,001,alexiabi,59.9703744374,prodShadow,2015_Dec_03_1349,tuc,
target,tiki,stim/tiki.wav,2,10,110,45,,,space,0.667835950851,,,001,alexiabi,59.9703744374,prodShadow,2015_Dec_03_1349,tuc,
target,peke,stim/peke.wav,2,11,111,37,,,space,0.517320871353,,,001,alexiabi,59.9703744374,prodShadow,2015_Dec_03_1349,tuc,
distractor,ita,stim/ita.wav,2,12,112,27,,,space,0.434259176254,,,001,alexiabi,59.9703744374,prodShadow,2015_Dec_03_1349,tuc,
distractor,apa,stim/apa.wav,2,13,113,1,,,space,0.650462150574,,,001,alexiabi,59.9703744374,prodShadow,2015_Dec_03_1349,tuc,
pname,topo,stim/topo.wav,2,14,114,46,,,space,0.634088039398,,,001,alexiabi,59.9703744374,prodShadow,2015_Dec_03_1349,tuc,
pname,taco,stim/taco.wav,2,15,115,42,,,space,0.713593959808,,,001,alexiabi,59.9703744374,prodShadow,2015_Dec_03_1349,tuc,
pname,bola,stim/bola.wav,2,16,116,7,,,space,0.45022892952,,,001,alexiabi,59.9703744374,prodShadow,2015_Dec_03_1349,tuc,
distractor,epa,stim/epa.wav,2,17,117,19,,,space,0.617090940475,,,001,alexiabi,59.9703744374,prodShadow,2015_Dec_03_1349,tuc,
pname,caca,stim/caca.wav,2,18,118,9,,,space,0.633831977844,,,001,alexiabi,59.9703744374,prodShadow,2015_Dec_03_1349,tuc,
target,kiki,stim/kiki.wav,2,19,119,30,,,space,0.630453109741,,,001,alexiabi,59.9703744374,prodShadow,2015_Dec_03_1349,tuc,
target,baka,stim/baka.wav,2,20,120,2,,,space,0.61713886261,,,001,alexiabi,59.9703744374,prodShadow,2015_Dec_03_1349,tuc,
pname,palo,stim/palo.wav,2,21,121,36,,,space,0.530178070068,,,001,alexiabi,59.9703744374,prodShadow,2015_Dec_03_1349,tuc,
pname,bala,stim/bala.wav,2,22,122,3,,,space,0.89776301384,,,001,alexiabi,59.9703744374,prodShadow,2015_Dec_03_1349,tuc,
target,teke,stim/teke.wav,2,23,123,44,,,space,0.617654085159,,,001,alexiabi,59.9703744374,prodShadow,2015_Dec_03_1349,tuc,
target,poko,stim/poko.wav,2,24,124,39,,,space,0.567427873611,,,001,alexiabi,59.9703744374,prodShadow,2015_Dec_03_1349,tuc,
target,toko,stim/toko.wav,2,25,125,47,,,space,0.566888093948,,,001,alexiabi,59.9703744374,prodShadow,2015_Dec_03_1349,tuc,
distractor,oba,stim/oba.wav,2,26,126,33,,,space,0.483836174011,,,001,alexiabi,59.9703744374,prodShadow,2015_Dec_03_1349,tuc,
pname,dado,stim/dado.wav,2,27,127,11,,,space,0.483891963959,,,001,alexiabi,59.9703744374,prodShadow,2015_Dec_03_1349,tuc,
target,gaka,stim/gaka.wav,2,28,128,20,,,space,0.783977031708,,,001,alexiabi,59.9703744374,prodShadow,2015_Dec_03_1349,tuc,
target,kuku,stim/kuku.wav,2,29,129,32,,,space,0.403882980347,,,001,alexiabi,59.9703744374,prodShadow,2015_Dec_03_1349,tuc,
target,buku,stim/buku.wav,2,30,130,8,,,space,0.667261123657,,,001,alexiabi,59.9703744374,prodShadow,2015_Dec_03_1349,tuc,
target,daka,stim/daka.wav,2,31,131,12,,,space,0.633448123932,,,001,alexiabi,59.9703744374,prodShadow,2015_Dec_03_1349,tuc,
target,doko,stim/doko.wav,2,32,132,16,,,space,0.567703962326,,,001,alexiabi,59.9703744374,prodShadow,2015_Dec_03_1349,tuc,
target,kaka,stim/kaka.wav,2,33,133,28,,,space,0.65411901474,,,001,alexiabi,59.9703744374,prodShadow,2015_Dec_03_1349,tuc,
target,boko,stim/boko.wav,2,34,134,6,,,space,0.630537986755,,,001,alexiabi,59.9703744374,prodShadow,2015_Dec_03_1349,tuc,
target,diki,stim/diki.wav,2,35,135,14,,,space,0.450542926788,,,001,alexiabi,59.9703744374,prodShadow,2015_Dec_03_1349,tuc,
target,goko,stim/goko.wav,2,36,136,24,,,space,0.770601987839,,,001,alexiabi,59.9703744374,prodShadow,2015_Dec_03_1349,tuc,
target,keke,stim/keke.wav,2,37,137,29,,,space,0.620724201202,,,001,alexiabi,59.9703744374,prodShadow,2015_Dec_03_1349,tuc,
target,taka,stim/taka.wav,2,38,138,43,,,space,0.987398147583,,,001,alexiabi,59.9703744374,prodShadow,2015_Dec_03_1349,tuc,
target,puku,stim/puku.wav,2,39,139,41,,,space,0.47098493576,,,001,alexiabi,59.9703744374,prodShadow,2015_Dec_03_1349,tuc,
pname,gota,stim/gota.wav,2,40,140,25,,,space,0.100080966949,,,001,alexiabi,59.9703744374,prodShadow,2015_Dec_03_1349,tuc,
pname,dodo,stim/dodo.wav,2,41,141,15,,,space,0.583565950394,,,001,alexiabi,59.9703744374,prodShadow,2015_Dec_03_1349,tuc,
target,beke,stim/beke.wav,2,42,142,4,,,space,0.317289829254,,,001,alexiabi,59.9703744374,prodShadow,2015_Dec_03_1349,tuc,
target,biki,stim/biki.wav,2,43,143,5,,,space,0.437029838562,,,001,alexiabi,59.9703744374,prodShadow,2015_Dec_03_1349,tuc,
target,tuku,stim/tuku.wav,2,44,144,48,,,space,0.587702989578,,,001,alexiabi,59.9703744374,prodShadow,2015_Dec_03_1349,tuc,
distractor,ada,stim/ada.wav,2,45,145,0,,,space,0.530642032623,,,001,alexiabi,59.9703744374,prodShadow,2015_Dec_03_1349,tuc,
pname,coco,stim/coco.wav,2,46,146,10,,,space,0.684042930603,,,001,alexiabi,59.9703744374,prodShadow,2015_Dec_03_1349,tuc,
target,guku,stim/guku.wav,2,47,147,26,,,space,0.583776950836,,,001,alexiabi,59.9703744374,prodShadow,2015_Dec_03_1349,tuc,
target,paka,stim/paka.wav,2,48,148,35,,,space,0.536918878555,,,001,alexiabi,59.9703744374,prodShadow,2015_Dec_03_1349,tuc,
target,giki,stim/giki.wav,2,49,149,23,,,space,1.01724886894,,,001,alexiabi,59.9703744374,prodShadow,2015_Dec_03_1349,tuc,
,,,,,,,,,,,space,13.9685871601,001,alexiabi,59.9703744374,prodShadow,2015_Dec_03_1349,tuc,
