status,text,stim,trials.thisRepN,trials.thisTrialN,trials.thisN,trials.thisIndex,key_resp_3.keys,key_resp_3.rt,key_resp_2.keys,key_resp_2.rt,key_resp_4.keys,key_resp_4.rt,session,participant,frameRate,expName,date,condition,
,,,,,,,space,1.95085501671,,,,,005,jmt,59.9800652955,prodShadow,2015_Aug_02_1410,midd,
target,teke,stim/teke.wav,0,0,0,44,,,space,1.13433003426,,,005,jmt,59.9800652955,prodShadow,2015_Aug_02_1410,midd,
target,doko,stim/doko.wav,0,1,1,16,,,space,1.11783409119,,,005,jmt,59.9800652955,prodShadow,2015_Aug_02_1410,midd,
target,gaka,stim/gaka.wav,0,2,2,20,,,space,1.15080595016,,,005,jmt,59.9800652955,prodShadow,2015_Aug_02_1410,midd,
distractor,ada,stim/ada.wav,0,3,3,0,,,space,0.934005975723,,,005,jmt,59.9800652955,prodShadow,2015_Aug_02_1410,midd,
pname,gato,stim/gato.wav,0,4,4,21,,,space,1.35090708733,,,005,jmt,59.9800652955,prodShadow,2015_Aug_02_1410,midd,
pname,caca,stim/caca.wav,0,5,5,9,,,space,1.000893116,,,005,jmt,59.9800652955,prodShadow,2015_Aug_02_1410,midd,
target,guku,stim/guku.wav,0,6,6,26,,,space,1.36801099777,,,005,jmt,59.9800652955,prodShadow,2015_Aug_02_1410,midd,
target,tiki,stim/tiki.wav,0,7,7,45,,,space,0.901057958603,,,005,jmt,59.9800652955,prodShadow,2015_Aug_02_1410,midd,
pname,dado,stim/dado.wav,0,8,8,11,,,space,1.18437409401,,,005,jmt,59.9800652955,prodShadow,2015_Aug_02_1410,midd,
distractor,epa,stim/epa.wav,0,9,9,19,,,space,0.86719083786,,,005,jmt,59.9800652955,prodShadow,2015_Aug_02_1410,midd,
target,puku,stim/puku.wav,0,10,10,41,,,space,0.984095811844,,,005,jmt,59.9800652955,prodShadow,2015_Aug_02_1410,midd,
distractor,oba,stim/oba.wav,0,11,11,33,,,space,0.783958911896,,,005,jmt,59.9800652955,prodShadow,2015_Aug_02_1410,midd,
pname,coco,stim/coco.wav,0,12,12,10,,,space,0.967474937439,,,005,jmt,59.9800652955,prodShadow,2015_Aug_02_1410,midd,
target,piki,stim/piki.wav,0,13,13,38,,,space,0.834001779556,,,005,jmt,59.9800652955,prodShadow,2015_Aug_02_1410,midd,
distractor,ita,stim/ita.wav,0,14,14,27,,,space,0.817376852036,,,005,jmt,59.9800652955,prodShadow,2015_Aug_02_1410,midd,
pname,palo,stim/palo.wav,0,15,15,36,,,space,0.86741399765,,,005,jmt,59.9800652955,prodShadow,2015_Aug_02_1410,midd,
target,kaka,stim/kaka.wav,0,16,16,28,,,space,0.867483139038,,,005,jmt,59.9800652955,prodShadow,2015_Aug_02_1410,midd,
target,paka,stim/paka.wav,0,17,17,35,,,space,0.717389822006,,,005,jmt,59.9800652955,prodShadow,2015_Aug_02_1410,midd,
distractor,eda,stim/eda.wav,0,18,18,18,,,space,0.867323160172,,,005,jmt,59.9800652955,prodShadow,2015_Aug_02_1410,midd,
target,buku,stim/buku.wav,0,19,19,8,,,space,0.967584848404,,,005,jmt,59.9800652955,prodShadow,2015_Aug_02_1410,midd,
pname,gota,stim/gota.wav,0,20,20,25,,,space,1.15056610107,,,005,jmt,59.9800652955,prodShadow,2015_Aug_02_1410,midd,
target,tuku,stim/tuku.wav,0,21,21,48,,,space,0.917518138885,,,005,jmt,59.9800652955,prodShadow,2015_Aug_02_1410,midd,
target,kiki,stim/kiki.wav,0,22,22,30,,,space,0.850274801254,,,005,jmt,59.9800652955,prodShadow,2015_Aug_02_1410,midd,
target,baka,stim/baka.wav,0,23,23,2,,,space,0.934335947037,,,005,jmt,59.9800652955,prodShadow,2015_Aug_02_1410,midd,
pname,bola,stim/bola.wav,0,24,24,7,,,space,1.08371186256,,,005,jmt,59.9800652955,prodShadow,2015_Aug_02_1410,midd,
pname,topo,stim/topo.wav,0,25,25,46,,,space,0.850657939911,,,005,jmt,59.9800652955,prodShadow,2015_Aug_02_1410,midd,
distractor,oka,stim/oka.wav,0,26,26,34,,,space,1.00085997581,,,005,jmt,59.9800652955,prodShadow,2015_Aug_02_1410,midd,
target,boko,stim/boko.wav,0,27,27,6,,,space,1.08408379555,,,005,jmt,59.9800652955,prodShadow,2015_Aug_02_1410,midd,
target,daka,stim/daka.wav,0,28,28,12,,,space,0.95067691803,,,005,jmt,59.9800652955,prodShadow,2015_Aug_02_1410,midd,
pname,bala,stim/bala.wav,0,29,29,3,,,space,0.934522151947,,,005,jmt,59.9800652955,prodShadow,2015_Aug_02_1410,midd,
target,poko,stim/poko.wav,0,30,30,39,,,space,0.750725984573,,,005,jmt,59.9800652955,prodShadow,2015_Aug_02_1410,midd,
target,diki,stim/diki.wav,0,31,31,14,,,space,0.867453098297,,,005,jmt,59.9800652955,prodShadow,2015_Aug_02_1410,midd,
target,deke,stim/deke.wav,0,32,32,13,,,space,1.01732397079,,,005,jmt,59.9800652955,prodShadow,2015_Aug_02_1410,midd,
pname,polo,stim/polo.wav,0,33,33,40,,,space,0.867421865463,,,005,jmt,59.9800652955,prodShadow,2015_Aug_02_1410,midd,
target,giki,stim/giki.wav,0,34,34,23,,,space,0.867076873779,,,005,jmt,59.9800652955,prodShadow,2015_Aug_02_1410,midd,
target,koko,stim/koko.wav,0,35,35,31,,,space,1.03422904015,,,005,jmt,59.9800652955,prodShadow,2015_Aug_02_1410,midd,
target,goko,stim/goko.wav,0,36,36,24,,,space,0.983959197998,,,005,jmt,59.9800652955,prodShadow,2015_Aug_02_1410,midd,
target,kuku,stim/kuku.wav,0,37,37,32,,,space,0.734117984772,,,005,jmt,59.9800652955,prodShadow,2015_Aug_02_1410,midd,
target,keke,stim/keke.wav,0,38,38,29,,,space,0.784137964249,,,005,jmt,59.9800652955,prodShadow,2015_Aug_02_1410,midd,
target,biki,stim/biki.wav,0,39,39,5,,,space,1.06713414192,,,005,jmt,59.9800652955,prodShadow,2015_Aug_02_1410,midd,
pname,taco,stim/taco.wav,0,40,40,42,,,space,0.933803081512,,,005,jmt,59.9800652955,prodShadow,2015_Aug_02_1410,midd,
target,duku,stim/duku.wav,0,41,41,17,,,space,0.900639057159,,,005,jmt,59.9800652955,prodShadow,2015_Aug_02_1410,midd,
target,toko,stim/toko.wav,0,42,42,47,,,space,0.93431186676,,,005,jmt,59.9800652955,prodShadow,2015_Aug_02_1410,midd,
target,taka,stim/taka.wav,0,43,43,43,,,space,0.867477893829,,,005,jmt,59.9800652955,prodShadow,2015_Aug_02_1410,midd,
pname,dodo,stim/dodo.wav,0,44,44,15,,,space,0.817701101303,,,005,jmt,59.9800652955,prodShadow,2015_Aug_02_1410,midd,
target,geke,stim/geke.wav,0,45,45,22,,,space,0.917073011398,,,005,jmt,59.9800652955,prodShadow,2015_Aug_02_1410,midd,
distractor,apa,stim/apa.wav,0,46,46,1,,,space,0.900851011276,,,005,jmt,59.9800652955,prodShadow,2015_Aug_02_1410,midd,
distractor,uta,stim/uta.wav,0,47,47,49,,,space,0.817240953445,,,005,jmt,59.9800652955,prodShadow,2015_Aug_02_1410,midd,
target,peke,stim/peke.wav,0,48,48,37,,,space,0.784248828888,,,005,jmt,59.9800652955,prodShadow,2015_Aug_02_1410,midd,
target,beke,stim/beke.wav,0,49,49,4,,,space,1.16742491722,,,005,jmt,59.9800652955,prodShadow,2015_Aug_02_1410,midd,
target,toko,stim/toko.wav,1,0,50,47,,,space,0.93407201767,,,005,jmt,59.9800652955,prodShadow,2015_Aug_02_1410,midd,
target,tiki,stim/tiki.wav,1,1,51,45,,,space,0.834150075912,,,005,jmt,59.9800652955,prodShadow,2015_Aug_02_1410,midd,
target,duku,stim/duku.wav,1,2,52,17,,,space,0.950775146484,,,005,jmt,59.9800652955,prodShadow,2015_Aug_02_1410,midd,
target,buku,stim/buku.wav,1,3,53,8,,,space,1.05030584335,,,005,jmt,59.9800652955,prodShadow,2015_Aug_02_1410,midd,
target,tuku,stim/tuku.wav,1,4,54,48,,,space,0.934073925018,,,005,jmt,59.9800652955,prodShadow,2015_Aug_02_1410,midd,
target,diki,stim/diki.wav,1,5,55,14,,,space,0.950973987579,,,005,jmt,59.9800652955,prodShadow,2015_Aug_02_1410,midd,
target,peke,stim/peke.wav,1,6,56,37,,,space,0.784077882767,,,005,jmt,59.9800652955,prodShadow,2015_Aug_02_1410,midd,
pname,dodo,stim/dodo.wav,1,7,57,15,,,space,0.967391967773,,,005,jmt,59.9800652955,prodShadow,2015_Aug_02_1410,midd,
target,kiki,stim/kiki.wav,1,8,58,30,,,space,0.867516040802,,,005,jmt,59.9800652955,prodShadow,2015_Aug_02_1410,midd,
target,goko,stim/goko.wav,1,9,59,24,,,space,0.967407941818,,,005,jmt,59.9800652955,prodShadow,2015_Aug_02_1410,midd,
pname,bola,stim/bola.wav,1,10,60,7,,,space,1.00090003014,,,005,jmt,59.9800652955,prodShadow,2015_Aug_02_1410,midd,
pname,topo,stim/topo.wav,1,11,61,46,,,space,0.767467975616,,,005,jmt,59.9800652955,prodShadow,2015_Aug_02_1410,midd,
target,poko,stim/poko.wav,1,12,62,39,,,space,0.767455101013,,,005,jmt,59.9800652955,prodShadow,2015_Aug_02_1410,midd,
target,piki,stim/piki.wav,1,13,63,38,,,space,0.733731985092,,,005,jmt,59.9800652955,prodShadow,2015_Aug_02_1410,midd,
target,paka,stim/paka.wav,1,14,64,35,,,space,0.750576972961,,,005,jmt,59.9800652955,prodShadow,2015_Aug_02_1410,midd,
distractor,oka,stim/oka.wav,1,15,65,34,,,space,0.950814962387,,,005,jmt,59.9800652955,prodShadow,2015_Aug_02_1410,midd,
target,guku,stim/guku.wav,1,16,66,26,,,space,0.867646932602,,,005,jmt,59.9800652955,prodShadow,2015_Aug_02_1410,midd,
distractor,eda,stim/eda.wav,1,17,67,18,,,space,0.817239046097,,,005,jmt,59.9800652955,prodShadow,2015_Aug_02_1410,midd,
pname,dado,stim/dado.wav,1,18,68,11,,,space,1.10008716583,,,005,jmt,59.9800652955,prodShadow,2015_Aug_02_1410,midd,
pname,caca,stim/caca.wav,1,19,69,9,,,space,1.13405799866,,,005,jmt,59.9800652955,prodShadow,2015_Aug_02_1410,midd,
target,teke,stim/teke.wav,1,20,70,44,,,space,0.884171009064,,,005,jmt,59.9800652955,prodShadow,2015_Aug_02_1410,midd,
pname,palo,stim/palo.wav,1,21,71,36,,,space,1.01752495766,,,005,jmt,59.9800652955,prodShadow,2015_Aug_02_1410,midd,
distractor,apa,stim/apa.wav,1,22,72,1,,,space,0.783849954605,,,005,jmt,59.9800652955,prodShadow,2015_Aug_02_1410,midd,
target,taka,stim/taka.wav,1,23,73,43,,,space,0.93409705162,,,005,jmt,59.9800652955,prodShadow,2015_Aug_02_1410,midd,
target,biki,stim/biki.wav,1,24,74,5,,,space,1.0174369812,,,005,jmt,59.9800652955,prodShadow,2015_Aug_02_1410,midd,
pname,taco,stim/taco.wav,1,25,75,42,,,space,1.0173740387,,,005,jmt,59.9800652955,prodShadow,2015_Aug_02_1410,midd,
target,baka,stim/baka.wav,1,26,76,2,,,space,1.01693296432,,,005,jmt,59.9800652955,prodShadow,2015_Aug_02_1410,midd,
distractor,uta,stim/uta.wav,1,27,77,49,,,space,0.784059047699,,,005,jmt,59.9800652955,prodShadow,2015_Aug_02_1410,midd,
target,deke,stim/deke.wav,1,28,78,13,,,space,1.13444113731,,,005,jmt,59.9800652955,prodShadow,2015_Aug_02_1410,midd,
target,doko,stim/doko.wav,1,29,79,16,,,space,1.08404779434,,,005,jmt,59.9800652955,prodShadow,2015_Aug_02_1410,midd,
pname,bala,stim/bala.wav,1,30,80,3,,,space,1.01717400551,,,005,jmt,59.9800652955,prodShadow,2015_Aug_02_1410,midd,
pname,polo,stim/polo.wav,1,31,81,40,,,space,0.833816051483,,,005,jmt,59.9800652955,prodShadow,2015_Aug_02_1410,midd,
target,beke,stim/beke.wav,1,32,82,4,,,space,1.01771998405,,,005,jmt,59.9800652955,prodShadow,2015_Aug_02_1410,midd,
target,geke,stim/geke.wav,1,33,83,22,,,space,1.01756095886,,,005,jmt,59.9800652955,prodShadow,2015_Aug_02_1410,midd,
distractor,oba,stim/oba.wav,1,34,84,33,,,space,1.00074791908,,,005,jmt,59.9800652955,prodShadow,2015_Aug_02_1410,midd,
pname,gota,stim/gota.wav,1,35,85,25,,,space,1.06694889069,,,005,jmt,59.9800652955,prodShadow,2015_Aug_02_1410,midd,
target,giki,stim/giki.wav,1,36,86,23,,,space,0.767390966415,,,005,jmt,59.9800652955,prodShadow,2015_Aug_02_1410,midd,
target,koko,stim/koko.wav,1,37,87,31,,,space,0.833769083023,,,005,jmt,59.9800652955,prodShadow,2015_Aug_02_1410,midd,
target,keke,stim/keke.wav,1,38,88,29,,,space,0.867459058762,,,005,jmt,59.9800652955,prodShadow,2015_Aug_02_1410,midd,
target,kaka,stim/kaka.wav,1,39,89,28,,,space,0.983957052231,,,005,jmt,59.9800652955,prodShadow,2015_Aug_02_1410,midd,
target,kuku,stim/kuku.wav,1,40,90,32,,,space,0.833750009537,,,005,jmt,59.9800652955,prodShadow,2015_Aug_02_1410,midd,
distractor,epa,stim/epa.wav,1,41,91,19,,,space,0.850631952286,,,005,jmt,59.9800652955,prodShadow,2015_Aug_02_1410,midd,
target,puku,stim/puku.wav,1,42,92,41,,,space,0.767492055893,,,005,jmt,59.9800652955,prodShadow,2015_Aug_02_1410,midd,
distractor,ita,stim/ita.wav,1,43,93,27,,,space,0.834167957306,,,005,jmt,59.9800652955,prodShadow,2015_Aug_02_1410,midd,
target,boko,stim/boko.wav,1,44,94,6,,,space,0.91744184494,,,005,jmt,59.9800652955,prodShadow,2015_Aug_02_1410,midd,
target,daka,stim/daka.wav,1,45,95,12,,,space,0.750746965408,,,005,jmt,59.9800652955,prodShadow,2015_Aug_02_1410,midd,
pname,gato,stim/gato.wav,1,46,96,21,,,space,1.21753382683,,,005,jmt,59.9800652955,prodShadow,2015_Aug_02_1410,midd,
distractor,ada,stim/ada.wav,1,47,97,0,,,space,0.85066485405,,,005,jmt,59.9800652955,prodShadow,2015_Aug_02_1410,midd,
target,gaka,stim/gaka.wav,1,48,98,20,,,space,0.917306184769,,,005,jmt,59.9800652955,prodShadow,2015_Aug_02_1410,midd,
pname,coco,stim/coco.wav,1,49,99,10,,,space,1.03438615799,,,005,jmt,59.9800652955,prodShadow,2015_Aug_02_1410,midd,
target,geke,stim/geke.wav,2,0,100,22,,,space,0.9837911129,,,005,jmt,59.9800652955,prodShadow,2015_Aug_02_1410,midd,
target,kuku,stim/kuku.wav,2,1,101,32,,,space,0.817049980164,,,005,jmt,59.9800652955,prodShadow,2015_Aug_02_1410,midd,
target,deke,stim/deke.wav,2,2,102,13,,,space,1.18363499641,,,005,jmt,59.9800652955,prodShadow,2015_Aug_02_1410,midd,
target,teke,stim/teke.wav,2,3,103,44,,,space,0.850965976715,,,005,jmt,59.9800652955,prodShadow,2015_Aug_02_1410,midd,
target,biki,stim/biki.wav,2,4,104,5,,,space,1.1509552002,,,005,jmt,59.9800652955,prodShadow,2015_Aug_02_1410,midd,
pname,caca,stim/caca.wav,2,5,105,9,,,space,0.884124994278,,,005,jmt,59.9800652955,prodShadow,2015_Aug_02_1410,midd,
target,guku,stim/guku.wav,2,6,106,26,,,space,0.867358922958,,,005,jmt,59.9800652955,prodShadow,2015_Aug_02_1410,midd,
target,diki,stim/diki.wav,2,7,107,14,,,space,0.78408908844,,,005,jmt,59.9800652955,prodShadow,2015_Aug_02_1410,midd,
target,boko,stim/boko.wav,2,8,108,6,,,space,0.983947992325,,,005,jmt,59.9800652955,prodShadow,2015_Aug_02_1410,midd,
pname,gato,stim/gato.wav,2,9,109,21,,,space,1.10011100769,,,005,jmt,59.9800652955,prodShadow,2015_Aug_02_1410,midd,
target,buku,stim/buku.wav,2,10,110,8,,,space,0.900529146194,,,005,jmt,59.9800652955,prodShadow,2015_Aug_02_1410,midd,
pname,taco,stim/taco.wav,2,11,111,42,,,space,0.950761079788,,,005,jmt,59.9800652955,prodShadow,2015_Aug_02_1410,midd,
distractor,apa,stim/apa.wav,2,12,112,1,,,space,0.866988897324,,,005,jmt,59.9800652955,prodShadow,2015_Aug_02_1410,midd,
pname,topo,stim/topo.wav,2,13,113,46,,,space,0.667133808136,,,005,jmt,59.9800652955,prodShadow,2015_Aug_02_1410,midd,
target,keke,stim/keke.wav,2,14,114,29,,,space,0.784497976303,,,005,jmt,59.9800652955,prodShadow,2015_Aug_02_1410,midd,
target,duku,stim/duku.wav,2,15,115,17,,,space,0.984175920486,,,005,jmt,59.9800652955,prodShadow,2015_Aug_02_1410,midd,
target,puku,stim/puku.wav,2,16,116,41,,,space,0.834213972092,,,005,jmt,59.9800652955,prodShadow,2015_Aug_02_1410,midd,
pname,dado,stim/dado.wav,2,17,117,11,,,space,0.967446088791,,,005,jmt,59.9800652955,prodShadow,2015_Aug_02_1410,midd,
target,tuku,stim/tuku.wav,2,18,118,48,,,space,0.816912889481,,,005,jmt,59.9800652955,prodShadow,2015_Aug_02_1410,midd,
target,daka,stim/daka.wav,2,19,119,12,,,space,0.96737408638,,,005,jmt,59.9800652955,prodShadow,2015_Aug_02_1410,midd,
distractor,eda,stim/eda.wav,2,20,120,18,,,space,0.867471933365,,,005,jmt,59.9800652955,prodShadow,2015_Aug_02_1410,midd,
target,piki,stim/piki.wav,2,21,121,38,,,space,0.733887195587,,,005,jmt,59.9800652955,prodShadow,2015_Aug_02_1410,midd,
target,poko,stim/poko.wav,2,22,122,39,,,space,0.684094905853,,,005,jmt,59.9800652955,prodShadow,2015_Aug_02_1410,midd,
target,giki,stim/giki.wav,2,23,123,23,,,space,0.834413051605,,,005,jmt,59.9800652955,prodShadow,2015_Aug_02_1410,midd,
distractor,epa,stim/epa.wav,2,24,124,19,,,space,0.767220973969,,,005,jmt,59.9800652955,prodShadow,2015_Aug_02_1410,midd,
distractor,ita,stim/ita.wav,2,25,125,27,,,space,0.717024087906,,,005,jmt,59.9800652955,prodShadow,2015_Aug_02_1410,midd,
target,goko,stim/goko.wav,2,26,126,24,,,space,0.900899887085,,,005,jmt,59.9800652955,prodShadow,2015_Aug_02_1410,midd,
pname,dodo,stim/dodo.wav,2,27,127,15,,,space,0.800684928894,,,005,jmt,59.9800652955,prodShadow,2015_Aug_02_1410,midd,
target,beke,stim/beke.wav,2,28,128,4,,,space,1.01722216606,,,005,jmt,59.9800652955,prodShadow,2015_Aug_02_1410,midd,
target,baka,stim/baka.wav,2,29,129,2,,,space,0.950473070145,,,005,jmt,59.9800652955,prodShadow,2015_Aug_02_1410,midd,
pname,bola,stim/bola.wav,2,30,130,7,,,space,0.867149829865,,,005,jmt,59.9800652955,prodShadow,2015_Aug_02_1410,midd,
distractor,ada,stim/ada.wav,2,31,131,0,,,space,0.817355871201,,,005,jmt,59.9800652955,prodShadow,2015_Aug_02_1410,midd,
pname,bala,stim/bala.wav,2,32,132,3,,,space,0.750955820084,,,005,jmt,59.9800652955,prodShadow,2015_Aug_02_1410,midd,
target,toko,stim/toko.wav,2,33,133,47,,,space,0.934205770493,,,005,jmt,59.9800652955,prodShadow,2015_Aug_02_1410,midd,
pname,palo,stim/palo.wav,2,34,134,36,,,space,0.750834941864,,,005,jmt,59.9800652955,prodShadow,2015_Aug_02_1410,midd,
target,tiki,stim/tiki.wav,2,35,135,45,,,space,0.683809041977,,,005,jmt,59.9800652955,prodShadow,2015_Aug_02_1410,midd,
distractor,oba,stim/oba.wav,2,36,136,33,,,space,0.884033918381,,,005,jmt,59.9800652955,prodShadow,2015_Aug_02_1410,midd,
distractor,uta,stim/uta.wav,2,37,137,49,,,space,0.750653982162,,,005,jmt,59.9800652955,prodShadow,2015_Aug_02_1410,midd,
target,paka,stim/paka.wav,2,38,138,35,,,space,0.717624902725,,,005,jmt,59.9800652955,prodShadow,2015_Aug_02_1410,midd,
target,peke,stim/peke.wav,2,39,139,37,,,space,0.66762304306,,,005,jmt,59.9800652955,prodShadow,2015_Aug_02_1410,midd,
pname,coco,stim/coco.wav,2,40,140,10,,,space,0.917724847794,,,005,jmt,59.9800652955,prodShadow,2015_Aug_02_1410,midd,
target,taka,stim/taka.wav,2,41,141,43,,,space,0.884181976318,,,005,jmt,59.9800652955,prodShadow,2015_Aug_02_1410,midd,
target,doko,stim/doko.wav,2,42,142,16,,,space,1.0004131794,,,005,jmt,59.9800652955,prodShadow,2015_Aug_02_1410,midd,
target,gaka,stim/gaka.wav,2,43,143,20,,,space,0.900623083115,,,005,jmt,59.9800652955,prodShadow,2015_Aug_02_1410,midd,
pname,gota,stim/gota.wav,2,44,144,25,,,space,1.00100302696,,,005,jmt,59.9800652955,prodShadow,2015_Aug_02_1410,midd,
target,kaka,stim/kaka.wav,2,45,145,28,,,space,0.834295988083,,,005,jmt,59.9800652955,prodShadow,2015_Aug_02_1410,midd,
target,koko,stim/koko.wav,2,46,146,31,,,space,0.867347955704,,,005,jmt,59.9800652955,prodShadow,2015_Aug_02_1410,midd,
pname,polo,stim/polo.wav,2,47,147,40,,,space,0.733849048615,,,005,jmt,59.9800652955,prodShadow,2015_Aug_02_1410,midd,
target,kiki,stim/kiki.wav,2,48,148,30,,,space,0.866817951202,,,005,jmt,59.9800652955,prodShadow,2015_Aug_02_1410,midd,
distractor,oka,stim/oka.wav,2,49,149,34,,,space,0.867200136185,,,005,jmt,59.9800652955,prodShadow,2015_Aug_02_1410,midd,
,,,,,,,,,,,space,128.618075848,005,jmt,59.9800652955,prodShadow,2015_Aug_02_1410,midd,
