status,text,stim,trials.thisRepN,trials.thisTrialN,trials.thisN,trials.thisIndex,key_resp_3.keys,key_resp_3.rt,key_resp_2.keys,key_resp_2.rt,key_resp_4.keys,key_resp_4.rt,session,participant,frameRate,expName,date,condition,
,,,,,,,space,5.76444506645,,,,,001,irvingbi,60.1004754385,prodShadow,2016_Jan_27_1731,tuc,
target,taka,stim/taka.wav,0,0,0,43,,,space,6.85175204277,,,001,irvingbi,60.1004754385,prodShadow,2016_Jan_27_1731,tuc,
target,poko,stim/poko.wav,0,1,1,39,,,space,4.39824795723,,,001,irvingbi,60.1004754385,prodShadow,2016_Jan_27_1731,tuc,
target,giki,stim/giki.wav,0,2,2,23,,,space,2.03405094147,,,001,irvingbi,60.1004754385,prodShadow,2016_Jan_27_1731,tuc,
pname,palo,stim/palo.wav,0,3,3,36,,,space,1.80096697807,,,001,irvingbi,60.1004754385,prodShadow,2016_Jan_27_1731,tuc,
target,duku,stim/duku.wav,0,4,4,17,,,space,1.8212389946,,,001,irvingbi,60.1004754385,prodShadow,2016_Jan_27_1731,tuc,
target,koko,stim/koko.wav,0,5,5,31,,,space,1.77006721497,,,001,irvingbi,60.1004754385,prodShadow,2016_Jan_27_1731,tuc,
target,kaka,stim/kaka.wav,0,6,6,28,,,space,1.83394598961,,,001,irvingbi,60.1004754385,prodShadow,2016_Jan_27_1731,tuc,
target,gaka,stim/gaka.wav,0,7,7,20,,,space,1.56762695312,,,001,irvingbi,60.1004754385,prodShadow,2016_Jan_27_1731,tuc,
target,paka,stim/paka.wav,0,8,8,35,,,space,1.38445305824,,,001,irvingbi,60.1004754385,prodShadow,2016_Jan_27_1731,tuc,
target,tiki,stim/tiki.wav,0,9,9,45,,,space,0.517857074738,,,001,irvingbi,60.1004754385,prodShadow,2016_Jan_27_1731,tuc,
distractor,oba,stim/oba.wav,0,10,10,33,,,space,2.60076904297,,,001,irvingbi,60.1004754385,prodShadow,2016_Jan_27_1731,tuc,
target,puku,stim/puku.wav,0,11,11,41,,,space,1.11725616455,,,001,irvingbi,60.1004754385,prodShadow,2016_Jan_27_1731,tuc,
target,deke,stim/deke.wav,0,12,12,13,,,space,1.08453011513,,,001,irvingbi,60.1004754385,prodShadow,2016_Jan_27_1731,tuc,
distractor,oka,stim/oka.wav,0,13,13,34,,,space,1.21754598618,,,001,irvingbi,60.1004754385,prodShadow,2016_Jan_27_1731,tuc,
pname,coco,stim/coco.wav,0,14,14,10,,,space,1.13401508331,,,001,irvingbi,60.1004754385,prodShadow,2016_Jan_27_1731,tuc,
target,daka,stim/daka.wav,0,15,15,12,,,space,1.33393001556,,,001,irvingbi,60.1004754385,prodShadow,2016_Jan_27_1731,tuc,
distractor,epa,stim/epa.wav,0,16,16,19,,,space,1.08405804634,,,001,irvingbi,60.1004754385,prodShadow,2016_Jan_27_1731,tuc,
pname,polo,stim/polo.wav,0,17,17,40,,,space,1.03459095955,,,001,irvingbi,60.1004754385,prodShadow,2016_Jan_27_1731,tuc,
target,tuku,stim/tuku.wav,0,18,18,48,,,space,1.55148005486,,,001,irvingbi,60.1004754385,prodShadow,2016_Jan_27_1731,tuc,
target,toko,stim/toko.wav,0,19,19,47,,,space,0.804328918457,,,001,irvingbi,60.1004754385,prodShadow,2016_Jan_27_1731,tuc,
distractor,ada,stim/ada.wav,0,20,20,0,,,space,1.11750102043,,,001,irvingbi,60.1004754385,prodShadow,2016_Jan_27_1731,tuc,
target,biki,stim/biki.wav,0,21,21,5,,,space,0.921602964401,,,001,irvingbi,60.1004754385,prodShadow,2016_Jan_27_1731,tuc,
target,boko,stim/boko.wav,0,22,22,6,,,space,1.09712696075,,,001,irvingbi,60.1004754385,prodShadow,2016_Jan_27_1731,tuc,
pname,gota,stim/gota.wav,0,23,23,25,,,space,1.05068206787,,,001,irvingbi,60.1004754385,prodShadow,2016_Jan_27_1731,tuc,
target,teke,stim/teke.wav,0,24,24,44,,,space,0.688017129898,,,001,irvingbi,60.1004754385,prodShadow,2016_Jan_27_1731,tuc,
target,kuku,stim/kuku.wav,0,25,25,32,,,space,0.950988054276,,,001,irvingbi,60.1004754385,prodShadow,2016_Jan_27_1731,tuc,
distractor,apa,stim/apa.wav,0,26,26,1,,,space,0.734719991684,,,001,irvingbi,60.1004754385,prodShadow,2016_Jan_27_1731,tuc,
pname,topo,stim/topo.wav,0,27,27,46,,,space,0.797232866287,,,001,irvingbi,60.1004754385,prodShadow,2016_Jan_27_1731,tuc,
target,baka,stim/baka.wav,0,28,28,2,,,space,0.917906045914,,,001,irvingbi,60.1004754385,prodShadow,2016_Jan_27_1731,tuc,
target,doko,stim/doko.wav,0,29,29,16,,,space,1.18776798248,,,001,irvingbi,60.1004754385,prodShadow,2016_Jan_27_1731,tuc,
pname,dodo,stim/dodo.wav,0,30,30,15,,,space,0.330395936966,,,001,irvingbi,60.1004754385,prodShadow,2016_Jan_27_1731,tuc,
pname,gato,stim/gato.wav,0,31,31,21,,,space,1.25079298019,,,001,irvingbi,60.1004754385,prodShadow,2016_Jan_27_1731,tuc,
target,keke,stim/keke.wav,0,32,32,29,,,space,1.08453989029,,,001,irvingbi,60.1004754385,prodShadow,2016_Jan_27_1731,tuc,
target,beke,stim/beke.wav,0,33,33,4,,,space,1.05068802834,,,001,irvingbi,60.1004754385,prodShadow,2016_Jan_27_1731,tuc,
pname,dado,stim/dado.wav,0,34,34,11,,,space,1.16728591919,,,001,irvingbi,60.1004754385,prodShadow,2016_Jan_27_1731,tuc,
target,geke,stim/geke.wav,0,35,35,22,,,space,1.85066699982,,,001,irvingbi,60.1004754385,prodShadow,2016_Jan_27_1731,tuc,
pname,caca,stim/caca.wav,0,36,36,9,,,space,1.10066795349,,,001,irvingbi,60.1004754385,prodShadow,2016_Jan_27_1731,tuc,
target,peke,stim/peke.wav,0,37,37,37,,,space,0.96720790863,,,001,irvingbi,60.1004754385,prodShadow,2016_Jan_27_1731,tuc,
distractor,uta,stim/uta.wav,0,38,38,49,,,space,1.2514770031,,,001,irvingbi,60.1004754385,prodShadow,2016_Jan_27_1731,tuc,
pname,taco,stim/taco.wav,0,39,39,42,,,space,1.35112595558,,,001,irvingbi,60.1004754385,prodShadow,2016_Jan_27_1731,tuc,
target,buku,stim/buku.wav,0,40,40,8,,,space,1.3175868988,,,001,irvingbi,60.1004754385,prodShadow,2016_Jan_27_1731,tuc,
distractor,eda,stim/eda.wav,0,41,41,18,,,space,1.15091896057,,,001,irvingbi,60.1004754385,prodShadow,2016_Jan_27_1731,tuc,
target,piki,stim/piki.wav,0,42,42,38,,,space,1.1176738739,,,001,irvingbi,60.1004754385,prodShadow,2016_Jan_27_1731,tuc,
pname,bola,stim/bola.wav,0,43,43,7,,,space,1.03470611572,,,001,irvingbi,60.1004754385,prodShadow,2016_Jan_27_1731,tuc,
distractor,ita,stim/ita.wav,0,44,44,27,,,space,1.00071907043,,,001,irvingbi,60.1004754385,prodShadow,2016_Jan_27_1731,tuc,
target,kiki,stim/kiki.wav,0,45,45,30,,,space,1.25146102905,,,001,irvingbi,60.1004754385,prodShadow,2016_Jan_27_1731,tuc,
target,guku,stim/guku.wav,0,46,46,26,,,space,1.00099396706,,,001,irvingbi,60.1004754385,prodShadow,2016_Jan_27_1731,tuc,
pname,bala,stim/bala.wav,0,47,47,3,,,space,1.96688699722,,,001,irvingbi,60.1004754385,prodShadow,2016_Jan_27_1731,tuc,
target,diki,stim/diki.wav,0,48,48,14,,,space,0.966866970062,,,001,irvingbi,60.1004754385,prodShadow,2016_Jan_27_1731,tuc,
target,goko,stim/goko.wav,0,49,49,24,,,space,0.763257026672,,,001,irvingbi,60.1004754385,prodShadow,2016_Jan_27_1731,tuc,
distractor,apa,stim/apa.wav,1,0,50,1,,,space,0.884330034256,,,001,irvingbi,60.1004754385,prodShadow,2016_Jan_27_1731,tuc,
target,taka,stim/taka.wav,1,1,51,43,,,space,0.617854118347,,,001,irvingbi,60.1004754385,prodShadow,2016_Jan_27_1731,tuc,
target,kaka,stim/kaka.wav,1,2,52,28,,,space,1.20496988297,,,001,irvingbi,60.1004754385,prodShadow,2016_Jan_27_1731,tuc,
target,buku,stim/buku.wav,1,3,53,8,,,space,1.18422818184,,,001,irvingbi,60.1004754385,prodShadow,2016_Jan_27_1731,tuc,
target,tuku,stim/tuku.wav,1,4,54,48,,,space,1.40091013908,,,001,irvingbi,60.1004754385,prodShadow,2016_Jan_27_1731,tuc,
pname,dado,stim/dado.wav,1,5,55,11,,,space,0.771413087845,,,001,irvingbi,60.1004754385,prodShadow,2016_Jan_27_1731,tuc,
target,biki,stim/biki.wav,1,6,56,5,,,space,1.18399500847,,,001,irvingbi,60.1004754385,prodShadow,2016_Jan_27_1731,tuc,
target,teke,stim/teke.wav,1,7,57,44,,,space,1.13375091553,,,001,irvingbi,60.1004754385,prodShadow,2016_Jan_27_1731,tuc,
pname,gota,stim/gota.wav,1,8,58,25,,,space,1.15072703362,,,001,irvingbi,60.1004754385,prodShadow,2016_Jan_27_1731,tuc,
target,guku,stim/guku.wav,1,9,59,26,,,space,1.00074601173,,,001,irvingbi,60.1004754385,prodShadow,2016_Jan_27_1731,tuc,
distractor,ada,stim/ada.wav,1,10,60,0,,,space,0.917599916458,,,001,irvingbi,60.1004754385,prodShadow,2016_Jan_27_1731,tuc,
pname,palo,stim/palo.wav,1,11,61,36,,,space,0.737846136093,,,001,irvingbi,60.1004754385,prodShadow,2016_Jan_27_1731,tuc,
distractor,oka,stim/oka.wav,1,12,62,34,,,space,0.617646932602,,,001,irvingbi,60.1004754385,prodShadow,2016_Jan_27_1731,tuc,
target,kiki,stim/kiki.wav,1,13,63,30,,,space,0.813768148422,,,001,irvingbi,60.1004754385,prodShadow,2016_Jan_27_1731,tuc,
target,peke,stim/peke.wav,1,14,64,37,,,space,0.587523937225,,,001,irvingbi,60.1004754385,prodShadow,2016_Jan_27_1731,tuc,
target,piki,stim/piki.wav,1,15,65,38,,,space,0.763448953629,,,001,irvingbi,60.1004754385,prodShadow,2016_Jan_27_1731,tuc,
target,baka,stim/baka.wav,1,16,66,2,,,space,0.550369024277,,,001,irvingbi,60.1004754385,prodShadow,2016_Jan_27_1731,tuc,
distractor,ita,stim/ita.wav,1,17,67,27,,,space,0.638000011444,,,001,irvingbi,60.1004754385,prodShadow,2016_Jan_27_1731,tuc,
target,gaka,stim/gaka.wav,1,18,68,20,,,space,0.571267127991,,,001,irvingbi,60.1004754385,prodShadow,2016_Jan_27_1731,tuc,
pname,dodo,stim/dodo.wav,1,19,69,15,,,space,0.530157089233,,,001,irvingbi,60.1004754385,prodShadow,2016_Jan_27_1731,tuc,
target,toko,stim/toko.wav,1,20,70,47,,,space,0.667805194855,,,001,irvingbi,60.1004754385,prodShadow,2016_Jan_27_1731,tuc,
target,paka,stim/paka.wav,1,21,71,35,,,space,0.417977809906,,,001,irvingbi,60.1004754385,prodShadow,2016_Jan_27_1731,tuc,
target,poko,stim/poko.wav,1,22,72,39,,,space,0.530314207077,,,001,irvingbi,60.1004754385,prodShadow,2016_Jan_27_1731,tuc,
pname,bala,stim/bala.wav,1,23,73,3,,,space,0.434470176697,,,001,irvingbi,60.1004754385,prodShadow,2016_Jan_27_1731,tuc,
pname,gato,stim/gato.wav,1,24,74,21,,,space,0.418222904205,,,001,irvingbi,60.1004754385,prodShadow,2016_Jan_27_1731,tuc,
target,daka,stim/daka.wav,1,25,75,12,,,space,0.781018972397,,,001,irvingbi,60.1004754385,prodShadow,2016_Jan_27_1731,tuc,
distractor,uta,stim/uta.wav,1,26,76,49,,,space,0.417171955109,,,001,irvingbi,60.1004754385,prodShadow,2016_Jan_27_1731,tuc,
target,koko,stim/koko.wav,1,27,77,31,,,space,0.317660093307,,,001,irvingbi,60.1004754385,prodShadow,2016_Jan_27_1731,tuc,
target,doko,stim/doko.wav,1,28,78,16,,,space,0.28412103653,,,001,irvingbi,60.1004754385,prodShadow,2016_Jan_27_1731,tuc,
target,goko,stim/goko.wav,1,29,79,24,,,space,0.553916931152,,,001,irvingbi,60.1004754385,prodShadow,2016_Jan_27_1731,tuc,
target,boko,stim/boko.wav,1,30,80,6,,,space,0.250126123428,,,001,irvingbi,60.1004754385,prodShadow,2016_Jan_27_1731,tuc,
target,diki,stim/diki.wav,1,31,81,14,,,space,0.247768878937,,,001,irvingbi,60.1004754385,prodShadow,2016_Jan_27_1731,tuc,
target,beke,stim/beke.wav,1,32,82,4,,,space,0.514140844345,,,001,irvingbi,60.1004754385,prodShadow,2016_Jan_27_1731,tuc,
target,deke,stim/deke.wav,1,33,83,13,,,space,0.184089183807,,,001,irvingbi,60.1004754385,prodShadow,2016_Jan_27_1731,tuc,
target,keke,stim/keke.wav,1,34,84,29,,,space,0.63435792923,,,001,irvingbi,60.1004754385,prodShadow,2016_Jan_27_1731,tuc,
target,giki,stim/giki.wav,1,35,85,23,,,space,0.687936067581,,,001,irvingbi,60.1004754385,prodShadow,2016_Jan_27_1731,tuc,
pname,bola,stim/bola.wav,1,36,86,7,,,space,0.384536981583,,,001,irvingbi,60.1004754385,prodShadow,2016_Jan_27_1731,tuc,
pname,polo,stim/polo.wav,1,37,87,40,,,space,0.184268951416,,,001,irvingbi,60.1004754385,prodShadow,2016_Jan_27_1731,tuc,
pname,topo,stim/topo.wav,1,38,88,46,,,space,0.267132043839,,,001,irvingbi,60.1004754385,prodShadow,2016_Jan_27_1731,tuc,
pname,taco,stim/taco.wav,1,39,89,42,,,space,0.18425989151,,,001,irvingbi,60.1004754385,prodShadow,2016_Jan_27_1731,tuc,
pname,caca,stim/caca.wav,1,40,90,9,,,space,0.400634050369,,,001,irvingbi,60.1004754385,prodShadow,2016_Jan_27_1731,tuc,
pname,coco,stim/coco.wav,1,41,91,10,,,space,0.517279863358,,,001,irvingbi,60.1004754385,prodShadow,2016_Jan_27_1731,tuc,
distractor,epa,stim/epa.wav,1,42,92,19,,,space,0.1502430439,,,001,irvingbi,60.1004754385,prodShadow,2016_Jan_27_1731,tuc,
distractor,eda,stim/eda.wav,1,43,93,18,,,space,0.684067964554,,,001,irvingbi,60.1004754385,prodShadow,2016_Jan_27_1731,tuc,
target,geke,stim/geke.wav,1,44,94,22,,,space,0.950967073441,,,001,irvingbi,60.1004754385,prodShadow,2016_Jan_27_1731,tuc,
target,tiki,stim/tiki.wav,1,45,95,45,,,space,0.184059143066,,,001,irvingbi,60.1004754385,prodShadow,2016_Jan_27_1731,tuc,
target,puku,stim/puku.wav,1,46,96,41,,,space,1.13440513611,,,001,irvingbi,60.1004754385,prodShadow,2016_Jan_27_1731,tuc,
distractor,oba,stim/oba.wav,1,47,97,33,,,space,0.420966863632,,,001,irvingbi,60.1004754385,prodShadow,2016_Jan_27_1731,tuc,
target,duku,stim/duku.wav,1,48,98,17,,,space,1.02092599869,,,001,irvingbi,60.1004754385,prodShadow,2016_Jan_27_1731,tuc,
target,kuku,stim/kuku.wav,1,49,99,32,,,space,0.620711803436,,,001,irvingbi,60.1004754385,prodShadow,2016_Jan_27_1731,tuc,
target,giki,stim/giki.wav,2,0,100,23,,,space,0.450942993164,,,001,irvingbi,60.1004754385,prodShadow,2016_Jan_27_1731,tuc,
pname,dado,stim/dado.wav,2,1,101,11,,,space,0.283915996552,,,001,irvingbi,60.1004754385,prodShadow,2016_Jan_27_1731,tuc,
target,peke,stim/peke.wav,2,2,102,37,,,space,0.517412185669,,,001,irvingbi,60.1004754385,prodShadow,2016_Jan_27_1731,tuc,
distractor,apa,stim/apa.wav,2,3,103,1,,,space,0.350843906403,,,001,irvingbi,60.1004754385,prodShadow,2016_Jan_27_1731,tuc,
target,goko,stim/goko.wav,2,4,104,24,,,space,0.514641046524,,,001,irvingbi,60.1004754385,prodShadow,2016_Jan_27_1731,tuc,
distractor,uta,stim/uta.wav,2,5,105,49,,,space,0.814100980759,,,001,irvingbi,60.1004754385,prodShadow,2016_Jan_27_1731,tuc,
distractor,oba,stim/oba.wav,2,6,106,33,,,space,0.316903114319,,,001,irvingbi,60.1004754385,prodShadow,2016_Jan_27_1731,tuc,
target,beke,stim/beke.wav,2,7,107,4,,,space,0.217940807343,,,001,irvingbi,60.1004754385,prodShadow,2016_Jan_27_1731,tuc,
target,guku,stim/guku.wav,2,8,108,26,,,space,0.934056997299,,,001,irvingbi,60.1004754385,prodShadow,2016_Jan_27_1731,tuc,
target,geke,stim/geke.wav,2,9,109,22,,,space,0.934509038925,,,001,irvingbi,60.1004754385,prodShadow,2016_Jan_27_1731,tuc,
distractor,eda,stim/eda.wav,2,10,110,18,,,space,0.517826080322,,,001,irvingbi,60.1004754385,prodShadow,2016_Jan_27_1731,tuc,
target,deke,stim/deke.wav,2,11,111,13,,,space,0.317211866379,,,001,irvingbi,60.1004754385,prodShadow,2016_Jan_27_1731,tuc,
target,daka,stim/daka.wav,2,12,112,12,,,space,0.317152023315,,,001,irvingbi,60.1004754385,prodShadow,2016_Jan_27_1731,tuc,
pname,bola,stim/bola.wav,2,13,113,7,,,space,0.200590133667,,,001,irvingbi,60.1004754385,prodShadow,2016_Jan_27_1731,tuc,
target,tiki,stim/tiki.wav,2,14,114,45,,,space,0.217185020447,,,001,irvingbi,60.1004754385,prodShadow,2016_Jan_27_1731,tuc,
target,gaka,stim/gaka.wav,2,15,115,20,,,space,0.983374118805,,,001,irvingbi,60.1004754385,prodShadow,2016_Jan_27_1731,tuc,
target,biki,stim/biki.wav,2,16,116,5,,,space,0.538113832474,,,001,irvingbi,60.1004754385,prodShadow,2016_Jan_27_1731,tuc,
pname,bala,stim/bala.wav,2,17,117,3,,,space,0.184211015701,,,001,irvingbi,60.1004754385,prodShadow,2016_Jan_27_1731,tuc,
target,duku,stim/duku.wav,2,18,118,17,,,space,0.23421216011,,,001,irvingbi,60.1004754385,prodShadow,2016_Jan_27_1731,tuc,
target,baka,stim/baka.wav,2,19,119,2,,,space,0.48134803772,,,001,irvingbi,60.1004754385,prodShadow,2016_Jan_27_1731,tuc,
target,toko,stim/toko.wav,2,20,120,47,,,space,0.184597969055,,,001,irvingbi,60.1004754385,prodShadow,2016_Jan_27_1731,tuc,
target,tuku,stim/tuku.wav,2,21,121,48,,,space,0.354390859604,,,001,irvingbi,60.1004754385,prodShadow,2016_Jan_27_1731,tuc,
distractor,epa,stim/epa.wav,2,22,122,19,,,space,0.301146030426,,,001,irvingbi,60.1004754385,prodShadow,2016_Jan_27_1731,tuc,
pname,topo,stim/topo.wav,2,23,123,46,,,space,0.31715798378,,,001,irvingbi,60.1004754385,prodShadow,2016_Jan_27_1731,tuc,
target,keke,stim/keke.wav,2,24,124,29,,,space,0.79736995697,,,001,irvingbi,60.1004754385,prodShadow,2016_Jan_27_1731,tuc,
pname,dodo,stim/dodo.wav,2,25,125,15,,,space,0.300800085068,,,001,irvingbi,60.1004754385,prodShadow,2016_Jan_27_1731,tuc,
target,piki,stim/piki.wav,2,26,126,38,,,space,0.650502920151,,,001,irvingbi,60.1004754385,prodShadow,2016_Jan_27_1731,tuc,
target,poko,stim/poko.wav,2,27,127,39,,,space,0.150866031647,,,001,irvingbi,60.1004754385,prodShadow,2016_Jan_27_1731,tuc,
target,kaka,stim/kaka.wav,2,28,128,28,,,space,0.184051036835,,,001,irvingbi,60.1004754385,prodShadow,2016_Jan_27_1731,tuc,
target,kiki,stim/kiki.wav,2,29,129,30,,,space,0.150721073151,,,001,irvingbi,60.1004754385,prodShadow,2016_Jan_27_1731,tuc,
target,teke,stim/teke.wav,2,30,130,44,,,space,0.217345952988,,,001,irvingbi,60.1004754385,prodShadow,2016_Jan_27_1731,tuc,
target,taka,stim/taka.wav,2,31,131,43,,,space,0.183667898178,,,001,irvingbi,60.1004754385,prodShadow,2016_Jan_27_1731,tuc,
target,paka,stim/paka.wav,2,32,132,35,,,space,0.183865070343,,,001,irvingbi,60.1004754385,prodShadow,2016_Jan_27_1731,tuc,
target,boko,stim/boko.wav,2,33,133,6,,,space,0.284130096436,,,001,irvingbi,60.1004754385,prodShadow,2016_Jan_27_1731,tuc,
pname,gota,stim/gota.wav,2,34,134,25,,,space,0.613982915878,,,001,irvingbi,60.1004754385,prodShadow,2016_Jan_27_1731,tuc,
target,puku,stim/puku.wav,2,35,135,41,,,space,1.86834192276,,,001,irvingbi,60.1004754385,prodShadow,2016_Jan_27_1731,tuc,
pname,taco,stim/taco.wav,2,36,136,42,,,space,0.90105509758,,,001,irvingbi,60.1004754385,prodShadow,2016_Jan_27_1731,tuc,
distractor,oka,stim/oka.wav,2,37,137,34,,,space,0.667335033417,,,001,irvingbi,60.1004754385,prodShadow,2016_Jan_27_1731,tuc,
pname,gato,stim/gato.wav,2,38,138,21,,,space,0.484814882278,,,001,irvingbi,60.1004754385,prodShadow,2016_Jan_27_1731,tuc,
pname,caca,stim/caca.wav,2,39,139,9,,,space,1.30452394485,,,001,irvingbi,60.1004754385,prodShadow,2016_Jan_27_1731,tuc,
target,buku,stim/buku.wav,2,40,140,8,,,space,0.680832862854,,,001,irvingbi,60.1004754385,prodShadow,2016_Jan_27_1731,tuc,
target,koko,stim/koko.wav,2,41,141,31,,,space,0.650730848312,,,001,irvingbi,60.1004754385,prodShadow,2016_Jan_27_1731,tuc,
target,diki,stim/diki.wav,2,42,142,14,,,space,0.901051044464,,,001,irvingbi,60.1004754385,prodShadow,2016_Jan_27_1731,tuc,
pname,coco,stim/coco.wav,2,43,143,10,,,space,1.08420801163,,,001,irvingbi,60.1004754385,prodShadow,2016_Jan_27_1731,tuc,
target,kuku,stim/kuku.wav,2,44,144,32,,,space,1.26777791977,,,001,irvingbi,60.1004754385,prodShadow,2016_Jan_27_1731,tuc,
distractor,ita,stim/ita.wav,2,45,145,27,,,space,0.767007112503,,,001,irvingbi,60.1004754385,prodShadow,2016_Jan_27_1731,tuc,
distractor,ada,stim/ada.wav,2,46,146,0,,,space,0.771213054657,,,001,irvingbi,60.1004754385,prodShadow,2016_Jan_27_1731,tuc,
pname,palo,stim/palo.wav,2,47,147,36,,,space,1.28447198868,,,001,irvingbi,60.1004754385,prodShadow,2016_Jan_27_1731,tuc,
target,doko,stim/doko.wav,2,48,148,16,,,space,1.0505759716,,,001,irvingbi,60.1004754385,prodShadow,2016_Jan_27_1731,tuc,
pname,polo,stim/polo.wav,2,49,149,40,,,space,0.604570865631,,,001,irvingbi,60.1004754385,prodShadow,2016_Jan_27_1731,tuc,
,,,,,,,,,,,space,0.112380027771,001,irvingbi,60.1004754385,prodShadow,2016_Jan_27_1731,tuc,
