status,text,stim,trials.thisRepN,trials.thisTrialN,trials.thisN,trials.thisIndex,key_resp_3.keys,key_resp_3.rt,key_resp_2.keys,key_resp_2.rt,key_resp_4.keys,key_resp_4.rt,session,participant,frameRate,expName,date,condition,
,,,,,,,space,0.284039020538,,,,,005,bco,60.0712954781,prodShadow,2015_Aug_02_1344,midd,
target,diki,stim/diki.wav,0,0,0,14,,,space,1.55057787895,,,005,bco,60.0712954781,prodShadow,2015_Aug_02_1344,midd,
pname,taco,stim/taco.wav,0,1,1,42,,,space,1.31738901138,,,005,bco,60.0712954781,prodShadow,2015_Aug_02_1344,midd,
target,kuku,stim/kuku.wav,0,2,2,32,,,space,1.33342385292,,,005,bco,60.0712954781,prodShadow,2015_Aug_02_1344,midd,
target,toko,stim/toko.wav,0,3,3,47,,,space,1.43392014503,,,005,bco,60.0712954781,prodShadow,2015_Aug_02_1344,midd,
pname,dodo,stim/dodo.wav,0,4,4,15,,,space,1.48383593559,,,005,bco,60.0712954781,prodShadow,2015_Aug_02_1344,midd,
target,gaka,stim/gaka.wav,0,5,5,20,,,space,1.4841401577,,,005,bco,60.0712954781,prodShadow,2015_Aug_02_1344,midd,
target,beke,stim/beke.wav,0,6,6,4,,,space,1.45080804825,,,005,bco,60.0712954781,prodShadow,2015_Aug_02_1344,midd,
distractor,ada,stim/ada.wav,0,7,7,0,,,space,1.06737303734,,,005,bco,60.0712954781,prodShadow,2015_Aug_02_1344,midd,
distractor,uta,stim/uta.wav,0,8,8,49,,,space,1.20102190971,,,005,bco,60.0712954781,prodShadow,2015_Aug_02_1344,midd,
target,paka,stim/paka.wav,0,9,9,35,,,space,1.10043001175,,,005,bco,60.0712954781,prodShadow,2015_Aug_02_1344,midd,
target,daka,stim/daka.wav,0,10,10,12,,,space,1.18384814262,,,005,bco,60.0712954781,prodShadow,2015_Aug_02_1344,midd,
distractor,eda,stim/eda.wav,0,11,11,18,,,space,1.21733903885,,,005,bco,60.0712954781,prodShadow,2015_Aug_02_1344,midd,
pname,coco,stim/coco.wav,0,12,12,10,,,space,1.30076098442,,,005,bco,60.0712954781,prodShadow,2015_Aug_02_1344,midd,
pname,topo,stim/topo.wav,0,13,13,46,,,space,1.11723303795,,,005,bco,60.0712954781,prodShadow,2015_Aug_02_1344,midd,
pname,palo,stim/palo.wav,0,14,14,36,,,space,1.13404512405,,,005,bco,60.0712954781,prodShadow,2015_Aug_02_1344,midd,
target,tiki,stim/tiki.wav,0,15,15,45,,,space,1.11737895012,,,005,bco,60.0712954781,prodShadow,2015_Aug_02_1344,midd,
pname,caca,stim/caca.wav,0,16,16,9,,,space,1.13398194313,,,005,bco,60.0712954781,prodShadow,2015_Aug_02_1344,midd,
target,duku,stim/duku.wav,0,17,17,17,,,space,1.35033392906,,,005,bco,60.0712954781,prodShadow,2015_Aug_02_1344,midd,
target,teke,stim/teke.wav,0,18,18,44,,,space,1.38413405418,,,005,bco,60.0712954781,prodShadow,2015_Aug_02_1344,midd,
pname,bala,stim/bala.wav,0,19,19,3,,,space,1.36742115021,,,005,bco,60.0712954781,prodShadow,2015_Aug_02_1344,midd,
target,koko,stim/koko.wav,0,20,20,31,,,space,1.25091099739,,,005,bco,60.0712954781,prodShadow,2015_Aug_02_1344,midd,
target,deke,stim/deke.wav,0,21,21,13,,,space,1.58443903923,,,005,bco,60.0712954781,prodShadow,2015_Aug_02_1344,midd,
target,puku,stim/puku.wav,0,22,22,41,,,space,1.35058093071,,,005,bco,60.0712954781,prodShadow,2015_Aug_02_1344,midd,
target,taka,stim/taka.wav,0,23,23,43,,,space,1.23412299156,,,005,bco,60.0712954781,prodShadow,2015_Aug_02_1344,midd,
target,buku,stim/buku.wav,0,24,24,8,,,space,1.43452882767,,,005,bco,60.0712954781,prodShadow,2015_Aug_02_1344,midd,
pname,polo,stim/polo.wav,0,25,25,40,,,space,1.15101289749,,,005,bco,60.0712954781,prodShadow,2015_Aug_02_1344,midd,
target,guku,stim/guku.wav,0,26,26,26,,,space,1.35082507133,,,005,bco,60.0712954781,prodShadow,2015_Aug_02_1344,midd,
target,biki,stim/biki.wav,0,27,27,5,,,space,1.36738491058,,,005,bco,60.0712954781,prodShadow,2015_Aug_02_1344,midd,
distractor,oka,stim/oka.wav,0,28,28,34,,,space,1.33418798447,,,005,bco,60.0712954781,prodShadow,2015_Aug_02_1344,midd,
target,kiki,stim/kiki.wav,0,29,29,30,,,space,1.31785511971,,,005,bco,60.0712954781,prodShadow,2015_Aug_02_1344,midd,
pname,dado,stim/dado.wav,0,30,30,11,,,space,1.33421397209,,,005,bco,60.0712954781,prodShadow,2015_Aug_02_1344,midd,
target,goko,stim/goko.wav,0,31,31,24,,,space,1.33408308029,,,005,bco,60.0712954781,prodShadow,2015_Aug_02_1344,midd,
distractor,ita,stim/ita.wav,0,32,32,27,,,space,1.16767406464,,,005,bco,60.0712954781,prodShadow,2015_Aug_02_1344,midd,
target,piki,stim/piki.wav,0,33,33,38,,,space,1.1842110157,,,005,bco,60.0712954781,prodShadow,2015_Aug_02_1344,midd,
pname,gota,stim/gota.wav,0,34,34,25,,,space,1.63432002068,,,005,bco,60.0712954781,prodShadow,2015_Aug_02_1344,midd,
target,tuku,stim/tuku.wav,0,35,35,48,,,space,1.23392796516,,,005,bco,60.0712954781,prodShadow,2015_Aug_02_1344,midd,
pname,gato,stim/gato.wav,0,36,36,21,,,space,1.58405184746,,,005,bco,60.0712954781,prodShadow,2015_Aug_02_1344,midd,
distractor,epa,stim/epa.wav,0,37,37,19,,,space,1.16727590561,,,005,bco,60.0712954781,prodShadow,2015_Aug_02_1344,midd,
target,boko,stim/boko.wav,0,38,38,6,,,space,1.66750383377,,,005,bco,60.0712954781,prodShadow,2015_Aug_02_1344,midd,
target,peke,stim/peke.wav,0,39,39,37,,,space,1.30092096329,,,005,bco,60.0712954781,prodShadow,2015_Aug_02_1344,midd,
distractor,apa,stim/apa.wav,0,40,40,1,,,space,1.25079584122,,,005,bco,60.0712954781,prodShadow,2015_Aug_02_1344,midd,
target,doko,stim/doko.wav,0,41,41,16,,,space,1.3842689991,,,005,bco,60.0712954781,prodShadow,2015_Aug_02_1344,midd,
target,geke,stim/geke.wav,0,42,42,22,,,space,1.45101380348,,,005,bco,60.0712954781,prodShadow,2015_Aug_02_1344,midd,
target,kaka,stim/kaka.wav,0,43,43,28,,,space,1.41755199432,,,005,bco,60.0712954781,prodShadow,2015_Aug_02_1344,midd,
target,poko,stim/poko.wav,0,44,44,39,,,space,1.23389697075,,,005,bco,60.0712954781,prodShadow,2015_Aug_02_1344,midd,
target,keke,stim/keke.wav,0,45,45,29,,,space,1.28402113914,,,005,bco,60.0712954781,prodShadow,2015_Aug_02_1344,midd,
pname,bola,stim/bola.wav,0,46,46,7,,,space,1.36718702316,,,005,bco,60.0712954781,prodShadow,2015_Aug_02_1344,midd,
target,baka,stim/baka.wav,0,47,47,2,,,space,1.41752791405,,,005,bco,60.0712954781,prodShadow,2015_Aug_02_1344,midd,
distractor,oba,stim/oba.wav,0,48,48,33,,,space,1.28385686874,,,005,bco,60.0712954781,prodShadow,2015_Aug_02_1344,midd,
target,giki,stim/giki.wav,0,49,49,23,,,space,1.30109786987,,,005,bco,60.0712954781,prodShadow,2015_Aug_02_1344,midd,
distractor,oka,stim/oka.wav,1,0,50,34,,,space,1.45055913925,,,005,bco,60.0712954781,prodShadow,2015_Aug_02_1344,midd,
distractor,apa,stim/apa.wav,1,1,51,1,,,space,1.35074806213,,,005,bco,60.0712954781,prodShadow,2015_Aug_02_1344,midd,
pname,gato,stim/gato.wav,1,2,52,21,,,space,1.78440093994,,,005,bco,60.0712954781,prodShadow,2015_Aug_02_1344,midd,
target,beke,stim/beke.wav,1,3,53,4,,,space,1.51724004745,,,005,bco,60.0712954781,prodShadow,2015_Aug_02_1344,midd,
target,goko,stim/goko.wav,1,4,54,24,,,space,1.36755800247,,,005,bco,60.0712954781,prodShadow,2015_Aug_02_1344,midd,
target,poko,stim/poko.wav,1,5,55,39,,,space,1.15053796768,,,005,bco,60.0712954781,prodShadow,2015_Aug_02_1344,midd,
pname,bola,stim/bola.wav,1,6,56,7,,,space,1.50044393539,,,005,bco,60.0712954781,prodShadow,2015_Aug_02_1344,midd,
target,keke,stim/keke.wav,1,7,57,29,,,space,1.31751990318,,,005,bco,60.0712954781,prodShadow,2015_Aug_02_1344,midd,
target,kiki,stim/kiki.wav,1,8,58,30,,,space,1.33405590057,,,005,bco,60.0712954781,prodShadow,2015_Aug_02_1344,midd,
target,geke,stim/geke.wav,1,9,59,22,,,space,1.56760787964,,,005,bco,60.0712954781,prodShadow,2015_Aug_02_1344,midd,
distractor,ita,stim/ita.wav,1,10,60,27,,,space,1.26720714569,,,005,bco,60.0712954781,prodShadow,2015_Aug_02_1344,midd,
pname,bala,stim/bala.wav,1,11,61,3,,,space,1.28420782089,,,005,bco,60.0712954781,prodShadow,2015_Aug_02_1344,midd,
distractor,eda,stim/eda.wav,1,12,62,18,,,space,1.23391318321,,,005,bco,60.0712954781,prodShadow,2015_Aug_02_1344,midd,
target,doko,stim/doko.wav,1,13,63,16,,,space,1.48438096046,,,005,bco,60.0712954781,prodShadow,2015_Aug_02_1344,midd,
distractor,ada,stim/ada.wav,1,14,64,0,,,space,1.31735992432,,,005,bco,60.0712954781,prodShadow,2015_Aug_02_1344,midd,
pname,taco,stim/taco.wav,1,15,65,42,,,space,1.35127091408,,,005,bco,60.0712954781,prodShadow,2015_Aug_02_1344,midd,
distractor,oba,stim/oba.wav,1,16,66,33,,,space,1.2011141777,,,005,bco,60.0712954781,prodShadow,2015_Aug_02_1344,midd,
pname,gota,stim/gota.wav,1,17,67,25,,,space,1.4507329464,,,005,bco,60.0712954781,prodShadow,2015_Aug_02_1344,midd,
distractor,epa,stim/epa.wav,1,18,68,19,,,space,1.11762285233,,,005,bco,60.0712954781,prodShadow,2015_Aug_02_1344,midd,
target,toko,stim/toko.wav,1,19,69,47,,,space,1.30092716217,,,005,bco,60.0712954781,prodShadow,2015_Aug_02_1344,midd,
target,tiki,stim/tiki.wav,1,20,70,45,,,space,1.41741800308,,,005,bco,60.0712954781,prodShadow,2015_Aug_02_1344,midd,
pname,polo,stim/polo.wav,1,21,71,40,,,space,1.23400402069,,,005,bco,60.0712954781,prodShadow,2015_Aug_02_1344,midd,
target,guku,stim/guku.wav,1,22,72,26,,,space,1.46739411354,,,005,bco,60.0712954781,prodShadow,2015_Aug_02_1344,midd,
target,peke,stim/peke.wav,1,23,73,37,,,space,1.26722002029,,,005,bco,60.0712954781,prodShadow,2015_Aug_02_1344,midd,
target,duku,stim/duku.wav,1,24,74,17,,,space,1.40088891983,,,005,bco,60.0712954781,prodShadow,2015_Aug_02_1344,midd,
pname,topo,stim/topo.wav,1,25,75,46,,,space,1.26748204231,,,005,bco,60.0712954781,prodShadow,2015_Aug_02_1344,midd,
pname,dodo,stim/dodo.wav,1,26,76,15,,,space,1.35039591789,,,005,bco,60.0712954781,prodShadow,2015_Aug_02_1344,midd,
target,koko,stim/koko.wav,1,27,77,31,,,space,1.61754083633,,,005,bco,60.0712954781,prodShadow,2015_Aug_02_1344,midd,
target,kuku,stim/kuku.wav,1,28,78,32,,,space,1.50078105927,,,005,bco,60.0712954781,prodShadow,2015_Aug_02_1344,midd,
target,tuku,stim/tuku.wav,1,29,79,48,,,space,1.48414707184,,,005,bco,60.0712954781,prodShadow,2015_Aug_02_1344,midd,
pname,caca,stim/caca.wav,1,30,80,9,,,space,1.41732907295,,,005,bco,60.0712954781,prodShadow,2015_Aug_02_1344,midd,
target,daka,stim/daka.wav,1,31,81,12,,,space,1.46710395813,,,005,bco,60.0712954781,prodShadow,2015_Aug_02_1344,midd,
distractor,uta,stim/uta.wav,1,32,82,49,,,space,1.5843269825,,,005,bco,60.0712954781,prodShadow,2015_Aug_02_1344,midd,
target,puku,stim/puku.wav,1,33,83,41,,,space,1.50098705292,,,005,bco,60.0712954781,prodShadow,2015_Aug_02_1344,midd,
target,baka,stim/baka.wav,1,34,84,2,,,space,1.60074210167,,,005,bco,60.0712954781,prodShadow,2015_Aug_02_1344,midd,
pname,dado,stim/dado.wav,1,35,85,11,,,space,1.53417396545,,,005,bco,60.0712954781,prodShadow,2015_Aug_02_1344,midd,
target,piki,stim/piki.wav,1,36,86,38,,,space,1.31761217117,,,005,bco,60.0712954781,prodShadow,2015_Aug_02_1344,midd,
pname,palo,stim/palo.wav,1,37,87,36,,,space,1.55117797852,,,005,bco,60.0712954781,prodShadow,2015_Aug_02_1344,midd,
target,teke,stim/teke.wav,1,38,88,44,,,space,1.53450703621,,,005,bco,60.0712954781,prodShadow,2015_Aug_02_1344,midd,
target,biki,stim/biki.wav,1,39,89,5,,,space,1.6843149662,,,005,bco,60.0712954781,prodShadow,2015_Aug_02_1344,midd,
target,boko,stim/boko.wav,1,40,90,6,,,space,1.61748099327,,,005,bco,60.0712954781,prodShadow,2015_Aug_02_1344,midd,
target,gaka,stim/gaka.wav,1,41,91,20,,,space,1.6008079052,,,005,bco,60.0712954781,prodShadow,2015_Aug_02_1344,midd,
target,paka,stim/paka.wav,1,42,92,35,,,space,1.30091309547,,,005,bco,60.0712954781,prodShadow,2015_Aug_02_1344,midd,
target,diki,stim/diki.wav,1,43,93,14,,,space,1.38425111771,,,005,bco,60.0712954781,prodShadow,2015_Aug_02_1344,midd,
target,giki,stim/giki.wav,1,44,94,23,,,space,1.28430294991,,,005,bco,60.0712954781,prodShadow,2015_Aug_02_1344,midd,
target,buku,stim/buku.wav,1,45,95,8,,,space,1.51696610451,,,005,bco,60.0712954781,prodShadow,2015_Aug_02_1344,midd,
target,taka,stim/taka.wav,1,46,96,43,,,space,1.25040602684,,,005,bco,60.0712954781,prodShadow,2015_Aug_02_1344,midd,
target,deke,stim/deke.wav,1,47,97,13,,,space,1.55068516731,,,005,bco,60.0712954781,prodShadow,2015_Aug_02_1344,midd,
target,kaka,stim/kaka.wav,1,48,98,28,,,space,1.21750998497,,,005,bco,60.0712954781,prodShadow,2015_Aug_02_1344,midd,
pname,coco,stim/coco.wav,1,49,99,10,,,space,1.38376617432,,,005,bco,60.0712954781,prodShadow,2015_Aug_02_1344,midd,
target,peke,stim/peke.wav,2,0,100,37,,,space,1.26744103432,,,005,bco,60.0712954781,prodShadow,2015_Aug_02_1344,midd,
pname,caca,stim/caca.wav,2,1,101,9,,,space,1.3341588974,,,005,bco,60.0712954781,prodShadow,2015_Aug_02_1344,midd,
target,doko,stim/doko.wav,2,2,102,16,,,space,1.71782803535,,,005,bco,60.0712954781,prodShadow,2015_Aug_02_1344,midd,
target,diki,stim/diki.wav,2,3,103,14,,,space,1.46697998047,,,005,bco,60.0712954781,prodShadow,2015_Aug_02_1344,midd,
distractor,uta,stim/uta.wav,2,4,104,49,,,space,1.35063290596,,,005,bco,60.0712954781,prodShadow,2015_Aug_02_1344,midd,
target,koko,stim/koko.wav,2,5,105,31,,,space,1.46743392944,,,005,bco,60.0712954781,prodShadow,2015_Aug_02_1344,midd,
target,toko,stim/toko.wav,2,6,106,47,,,space,1.46735978127,,,005,bco,60.0712954781,prodShadow,2015_Aug_02_1344,midd,
distractor,apa,stim/apa.wav,2,7,107,1,,,space,1.267359972,,,005,bco,60.0712954781,prodShadow,2015_Aug_02_1344,midd,
target,beke,stim/beke.wav,2,8,108,4,,,space,1.81745314598,,,005,bco,60.0712954781,prodShadow,2015_Aug_02_1344,midd,
pname,taco,stim/taco.wav,2,9,109,42,,,space,1.5339179039,,,005,bco,60.0712954781,prodShadow,2015_Aug_02_1344,midd,
target,goko,stim/goko.wav,2,10,110,24,,,space,1.63418292999,,,005,bco,60.0712954781,prodShadow,2015_Aug_02_1344,midd,
target,keke,stim/keke.wav,2,11,111,29,,,space,1.50067615509,,,005,bco,60.0712954781,prodShadow,2015_Aug_02_1344,midd,
pname,bala,stim/bala.wav,2,12,112,3,,,space,1.50074887276,,,005,bco,60.0712954781,prodShadow,2015_Aug_02_1344,midd,
target,taka,stim/taka.wav,2,13,113,43,,,space,1.60105895996,,,005,bco,60.0712954781,prodShadow,2015_Aug_02_1344,midd,
target,kiki,stim/kiki.wav,2,14,114,30,,,space,1.46749186516,,,005,bco,60.0712954781,prodShadow,2015_Aug_02_1344,midd,
distractor,epa,stim/epa.wav,2,15,115,19,,,space,1.35084986687,,,005,bco,60.0712954781,prodShadow,2015_Aug_02_1344,midd,
target,kuku,stim/kuku.wav,2,16,116,32,,,space,1.50092220306,,,005,bco,60.0712954781,prodShadow,2015_Aug_02_1344,midd,
target,guku,stim/guku.wav,2,17,117,26,,,space,1.73429989815,,,005,bco,60.0712954781,prodShadow,2015_Aug_02_1344,midd,
target,poko,stim/poko.wav,2,18,118,39,,,space,1.36730694771,,,005,bco,60.0712954781,prodShadow,2015_Aug_02_1344,midd,
target,kaka,stim/kaka.wav,2,19,119,28,,,space,1.61762404442,,,005,bco,60.0712954781,prodShadow,2015_Aug_02_1344,midd,
target,baka,stim/baka.wav,2,20,120,2,,,space,1.68419909477,,,005,bco,60.0712954781,prodShadow,2015_Aug_02_1344,midd,
target,piki,stim/piki.wav,2,21,121,38,,,space,1.40070009232,,,005,bco,60.0712954781,prodShadow,2015_Aug_02_1344,midd,
distractor,oka,stim/oka.wav,2,22,122,34,,,space,1.63438200951,,,005,bco,60.0712954781,prodShadow,2015_Aug_02_1344,midd,
target,teke,stim/teke.wav,2,23,123,44,,,space,1.41742706299,,,005,bco,60.0712954781,prodShadow,2015_Aug_02_1344,midd,
distractor,ada,stim/ada.wav,2,24,124,0,,,space,1.48404097557,,,005,bco,60.0712954781,prodShadow,2015_Aug_02_1344,midd,
pname,dodo,stim/dodo.wav,2,25,125,15,,,space,1.400796175,,,005,bco,60.0712954781,prodShadow,2015_Aug_02_1344,midd,
pname,dado,stim/dado.wav,2,26,126,11,,,space,1.58399891853,,,005,bco,60.0712954781,prodShadow,2015_Aug_02_1344,midd,
pname,gota,stim/gota.wav,2,27,127,25,,,space,1.56716704369,,,005,bco,60.0712954781,prodShadow,2015_Aug_02_1344,midd,
pname,gato,stim/gato.wav,2,28,128,21,,,space,1.73431396484,,,005,bco,60.0712954781,prodShadow,2015_Aug_02_1344,midd,
pname,topo,stim/topo.wav,2,29,129,46,,,space,1.38448905945,,,005,bco,60.0712954781,prodShadow,2015_Aug_02_1344,midd,
target,paka,stim/paka.wav,2,30,130,35,,,space,1.33399415016,,,005,bco,60.0712954781,prodShadow,2015_Aug_02_1344,midd,
pname,polo,stim/polo.wav,2,31,131,40,,,space,1.46794915199,,,005,bco,60.0712954781,prodShadow,2015_Aug_02_1344,midd,
target,biki,stim/biki.wav,2,32,132,5,,,space,1.83413910866,,,005,bco,60.0712954781,prodShadow,2015_Aug_02_1344,midd,
target,tuku,stim/tuku.wav,2,33,133,48,,,space,1.48444414139,,,005,bco,60.0712954781,prodShadow,2015_Aug_02_1344,midd,
pname,bola,stim/bola.wav,2,34,134,7,,,space,1.56754779816,,,005,bco,60.0712954781,prodShadow,2015_Aug_02_1344,midd,
distractor,ita,stim/ita.wav,2,35,135,27,,,space,1.4340941906,,,005,bco,60.0712954781,prodShadow,2015_Aug_02_1344,midd,
distractor,oba,stim/oba.wav,2,36,136,33,,,space,1.41751909256,,,005,bco,60.0712954781,prodShadow,2015_Aug_02_1344,midd,
target,buku,stim/buku.wav,2,37,137,8,,,space,1.60071897507,,,005,bco,60.0712954781,prodShadow,2015_Aug_02_1344,midd,
target,gaka,stim/gaka.wav,2,38,138,20,,,space,1.63401484489,,,005,bco,60.0712954781,prodShadow,2015_Aug_02_1344,midd,
target,boko,stim/boko.wav,2,39,139,6,,,space,1.81741714478,,,005,bco,60.0712954781,prodShadow,2015_Aug_02_1344,midd,
target,puku,stim/puku.wav,2,40,140,41,,,space,1.33413982391,,,005,bco,60.0712954781,prodShadow,2015_Aug_02_1344,midd,
target,duku,stim/duku.wav,2,41,141,17,,,space,1.50100898743,,,005,bco,60.0712954781,prodShadow,2015_Aug_02_1344,midd,
target,deke,stim/deke.wav,2,42,142,13,,,space,1.78423881531,,,005,bco,60.0712954781,prodShadow,2015_Aug_02_1344,midd,
target,geke,stim/geke.wav,2,43,143,22,,,space,1.65084385872,,,005,bco,60.0712954781,prodShadow,2015_Aug_02_1344,midd,
distractor,eda,stim/eda.wav,2,44,144,18,,,space,1.56785988808,,,005,bco,60.0712954781,prodShadow,2015_Aug_02_1344,midd,
pname,coco,stim/coco.wav,2,45,145,10,,,space,1.55065703392,,,005,bco,60.0712954781,prodShadow,2015_Aug_02_1344,midd,
target,tiki,stim/tiki.wav,2,46,146,45,,,space,1.35077595711,,,005,bco,60.0712954781,prodShadow,2015_Aug_02_1344,midd,
pname,palo,stim/palo.wav,2,47,147,36,,,space,1.25080108643,,,005,bco,60.0712954781,prodShadow,2015_Aug_02_1344,midd,
target,daka,stim/daka.wav,2,48,148,12,,,space,1.45098686218,,,005,bco,60.0712954781,prodShadow,2015_Aug_02_1344,midd,
target,giki,stim/giki.wav,2,49,149,23,,,space,1.2837369442,,,005,bco,60.0712954781,prodShadow,2015_Aug_02_1344,midd,
,,,,,,,,,,,space,46.006403923,005,bco,60.0712954781,prodShadow,2015_Aug_02_1344,midd,
