status,text,stim,trials.thisRepN,trials.thisTrialN,trials.thisN,trials.thisIndex,key_resp_3.keys,key_resp_3.rt,key_resp_2.keys,key_resp_2.rt,key_resp_4.keys,key_resp_4.rt,session,participant,frameRate,expName,date,condition,
,,,,,,,space,3.76774096489,,,,,006,lmw,60.1200306742,prodShadow,2015_Aug_09_1440,midd,
target,guku,stim/guku.wav,0,0,0,26,,,space,2.3341050148,,,006,lmw,60.1200306742,prodShadow,2015_Aug_09_1440,midd,
target,daka,stim/daka.wav,0,1,1,12,,,space,1.51774096489,,,006,lmw,60.1200306742,prodShadow,2015_Aug_09_1440,midd,
pname,polo,stim/polo.wav,0,2,2,40,,,space,1.71745204926,,,006,lmw,60.1200306742,prodShadow,2015_Aug_09_1440,midd,
pname,bala,stim/bala.wav,0,3,3,3,,,space,1.33449316025,,,006,lmw,60.1200306742,prodShadow,2015_Aug_09_1440,midd,
distractor,oka,stim/oka.wav,0,4,4,34,,,space,1.68387293816,,,006,lmw,60.1200306742,prodShadow,2015_Aug_09_1440,midd,
pname,gota,stim/gota.wav,0,5,5,25,,,space,1.7675318718,,,006,lmw,60.1200306742,prodShadow,2015_Aug_09_1440,midd,
target,tuku,stim/tuku.wav,0,6,6,48,,,space,1.81722402573,,,006,lmw,60.1200306742,prodShadow,2015_Aug_09_1440,midd,
target,gaka,stim/gaka.wav,0,7,7,20,,,space,1.7672560215,,,006,lmw,60.1200306742,prodShadow,2015_Aug_09_1440,midd,
pname,gato,stim/gato.wav,0,8,8,21,,,space,1.95082116127,,,006,lmw,60.1200306742,prodShadow,2015_Aug_09_1440,midd,
target,buku,stim/buku.wav,0,9,9,8,,,space,1.81725406647,,,006,lmw,60.1200306742,prodShadow,2015_Aug_09_1440,midd,
target,geke,stim/geke.wav,0,10,10,22,,,space,1.76728606224,,,006,lmw,60.1200306742,prodShadow,2015_Aug_09_1440,midd,
target,teke,stim/teke.wav,0,11,11,44,,,space,1.53432106972,,,006,lmw,60.1200306742,prodShadow,2015_Aug_09_1440,midd,
target,giki,stim/giki.wav,0,12,12,23,,,space,1.5507068634,,,006,lmw,60.1200306742,prodShadow,2015_Aug_09_1440,midd,
pname,dodo,stim/dodo.wav,0,13,13,15,,,space,1.63434004784,,,006,lmw,60.1200306742,prodShadow,2015_Aug_09_1440,midd,
target,kuku,stim/kuku.wav,0,14,14,32,,,space,1.55094695091,,,006,lmw,60.1200306742,prodShadow,2015_Aug_09_1440,midd,
target,koko,stim/koko.wav,0,15,15,31,,,space,1.75060200691,,,006,lmw,60.1200306742,prodShadow,2015_Aug_09_1440,midd,
distractor,ita,stim/ita.wav,0,16,16,27,,,space,1.78347086906,,,006,lmw,60.1200306742,prodShadow,2015_Aug_09_1440,midd,
target,duku,stim/duku.wav,0,17,17,17,,,space,1.81768298149,,,006,lmw,60.1200306742,prodShadow,2015_Aug_09_1440,midd,
target,doko,stim/doko.wav,0,18,18,16,,,space,1.38447809219,,,006,lmw,60.1200306742,prodShadow,2015_Aug_09_1440,midd,
distractor,apa,stim/apa.wav,0,19,19,1,,,space,1.78401899338,,,006,lmw,60.1200306742,prodShadow,2015_Aug_09_1440,midd,
target,tiki,stim/tiki.wav,0,20,20,45,,,space,1.4506149292,,,006,lmw,60.1200306742,prodShadow,2015_Aug_09_1440,midd,
distractor,epa,stim/epa.wav,0,21,21,19,,,space,1.71759104729,,,006,lmw,60.1200306742,prodShadow,2015_Aug_09_1440,midd,
pname,coco,stim/coco.wav,0,22,22,10,,,space,1.81736493111,,,006,lmw,60.1200306742,prodShadow,2015_Aug_09_1440,midd,
pname,caca,stim/caca.wav,0,23,23,9,,,space,1.8510248661,,,006,lmw,60.1200306742,prodShadow,2015_Aug_09_1440,midd,
target,taka,stim/taka.wav,0,24,24,43,,,space,1.80085301399,,,006,lmw,60.1200306742,prodShadow,2015_Aug_09_1440,midd,
target,goko,stim/goko.wav,0,25,25,24,,,space,1.73449492455,,,006,lmw,60.1200306742,prodShadow,2015_Aug_09_1440,midd,
target,kiki,stim/kiki.wav,0,26,26,30,,,space,1.55083107948,,,006,lmw,60.1200306742,prodShadow,2015_Aug_09_1440,midd,
distractor,ada,stim/ada.wav,0,27,27,0,,,space,1.60055279732,,,006,lmw,60.1200306742,prodShadow,2015_Aug_09_1440,midd,
distractor,eda,stim/eda.wav,0,28,28,18,,,space,1.43402409554,,,006,lmw,60.1200306742,prodShadow,2015_Aug_09_1440,midd,
target,deke,stim/deke.wav,0,29,29,13,,,space,1.6339058876,,,006,lmw,60.1200306742,prodShadow,2015_Aug_09_1440,midd,
target,biki,stim/biki.wav,0,30,30,5,,,space,1.75093507767,,,006,lmw,60.1200306742,prodShadow,2015_Aug_09_1440,midd,
pname,palo,stim/palo.wav,0,31,31,36,,,space,1.41767597198,,,006,lmw,60.1200306742,prodShadow,2015_Aug_09_1440,midd,
target,piki,stim/piki.wav,0,32,32,38,,,space,1.36744713783,,,006,lmw,60.1200306742,prodShadow,2015_Aug_09_1440,midd,
target,boko,stim/boko.wav,0,33,33,6,,,space,1.55094504356,,,006,lmw,60.1200306742,prodShadow,2015_Aug_09_1440,midd,
target,peke,stim/peke.wav,0,34,34,37,,,space,1.63397192955,,,006,lmw,60.1200306742,prodShadow,2015_Aug_09_1440,midd,
target,keke,stim/keke.wav,0,35,35,29,,,space,1.58400988579,,,006,lmw,60.1200306742,prodShadow,2015_Aug_09_1440,midd,
target,kaka,stim/kaka.wav,0,36,36,28,,,space,1.61739706993,,,006,lmw,60.1200306742,prodShadow,2015_Aug_09_1440,midd,
target,paka,stim/paka.wav,0,37,37,35,,,space,1.53432893753,,,006,lmw,60.1200306742,prodShadow,2015_Aug_09_1440,midd,
pname,bola,stim/bola.wav,0,38,38,7,,,space,1.61747813225,,,006,lmw,60.1200306742,prodShadow,2015_Aug_09_1440,midd,
pname,dado,stim/dado.wav,0,39,39,11,,,space,1.46731591225,,,006,lmw,60.1200306742,prodShadow,2015_Aug_09_1440,midd,
pname,taco,stim/taco.wav,0,40,40,42,,,space,1.45072984695,,,006,lmw,60.1200306742,prodShadow,2015_Aug_09_1440,midd,
distractor,oba,stim/oba.wav,0,41,41,33,,,space,1.46747899055,,,006,lmw,60.1200306742,prodShadow,2015_Aug_09_1440,midd,
target,baka,stim/baka.wav,0,42,42,2,,,space,1.55091190338,,,006,lmw,60.1200306742,prodShadow,2015_Aug_09_1440,midd,
pname,topo,stim/topo.wav,0,43,43,46,,,space,1.51751613617,,,006,lmw,60.1200306742,prodShadow,2015_Aug_09_1440,midd,
target,toko,stim/toko.wav,0,44,44,47,,,space,1.43422889709,,,006,lmw,60.1200306742,prodShadow,2015_Aug_09_1440,midd,
target,poko,stim/poko.wav,0,45,45,39,,,space,1.43407392502,,,006,lmw,60.1200306742,prodShadow,2015_Aug_09_1440,midd,
distractor,uta,stim/uta.wav,0,46,46,49,,,space,1.31729507446,,,006,lmw,60.1200306742,prodShadow,2015_Aug_09_1440,midd,
target,puku,stim/puku.wav,0,47,47,41,,,space,1.36785697937,,,006,lmw,60.1200306742,prodShadow,2015_Aug_09_1440,midd,
target,beke,stim/beke.wav,0,48,48,4,,,space,1.86741614342,,,006,lmw,60.1200306742,prodShadow,2015_Aug_09_1440,midd,
target,diki,stim/diki.wav,0,49,49,14,,,space,1.65079212189,,,006,lmw,60.1200306742,prodShadow,2015_Aug_09_1440,midd,
distractor,oba,stim/oba.wav,1,0,50,33,,,space,1.51774787903,,,006,lmw,60.1200306742,prodShadow,2015_Aug_09_1440,midd,
target,gaka,stim/gaka.wav,1,1,51,20,,,space,1.65049409866,,,006,lmw,60.1200306742,prodShadow,2015_Aug_09_1440,midd,
target,beke,stim/beke.wav,1,2,52,4,,,space,1.70087981224,,,006,lmw,60.1200306742,prodShadow,2015_Aug_09_1440,midd,
target,toko,stim/toko.wav,1,3,53,47,,,space,1.58436894417,,,006,lmw,60.1200306742,prodShadow,2015_Aug_09_1440,midd,
distractor,apa,stim/apa.wav,1,4,54,1,,,space,1.41755700111,,,006,lmw,60.1200306742,prodShadow,2015_Aug_09_1440,midd,
distractor,ada,stim/ada.wav,1,5,55,0,,,space,1.6506319046,,,006,lmw,60.1200306742,prodShadow,2015_Aug_09_1440,midd,
target,geke,stim/geke.wav,1,6,56,22,,,space,1.58447194099,,,006,lmw,60.1200306742,prodShadow,2015_Aug_09_1440,midd,
target,kuku,stim/kuku.wav,1,7,57,32,,,space,1.41746497154,,,006,lmw,60.1200306742,prodShadow,2015_Aug_09_1440,midd,
target,biki,stim/biki.wav,1,8,58,5,,,space,1.76747608185,,,006,lmw,60.1200306742,prodShadow,2015_Aug_09_1440,midd,
pname,dodo,stim/dodo.wav,1,9,59,15,,,space,1.36702203751,,,006,lmw,60.1200306742,prodShadow,2015_Aug_09_1440,midd,
pname,caca,stim/caca.wav,1,10,60,9,,,space,3.05083584785,,,006,lmw,60.1200306742,prodShadow,2015_Aug_09_1440,midd,
pname,gota,stim/gota.wav,1,11,61,25,,,space,1.41725111008,,,006,lmw,60.1200306742,prodShadow,2015_Aug_09_1440,midd,
target,kiki,stim/kiki.wav,1,12,62,30,,,space,1.41746306419,,,006,lmw,60.1200306742,prodShadow,2015_Aug_09_1440,midd,
target,poko,stim/poko.wav,1,13,63,39,,,space,1.40058207512,,,006,lmw,60.1200306742,prodShadow,2015_Aug_09_1440,midd,
target,teke,stim/teke.wav,1,14,64,44,,,space,1.31729197502,,,006,lmw,60.1200306742,prodShadow,2015_Aug_09_1440,midd,
distractor,oka,stim/oka.wav,1,15,65,34,,,space,1.45032596588,,,006,lmw,60.1200306742,prodShadow,2015_Aug_09_1440,midd,
target,deke,stim/deke.wav,1,16,66,13,,,space,1.65056991577,,,006,lmw,60.1200306742,prodShadow,2015_Aug_09_1440,midd,
pname,bala,stim/bala.wav,1,17,67,3,,,space,1.5838470459,,,006,lmw,60.1200306742,prodShadow,2015_Aug_09_1440,midd,
pname,taco,stim/taco.wav,1,18,68,42,,,space,1.33421802521,,,006,lmw,60.1200306742,prodShadow,2015_Aug_09_1440,midd,
target,guku,stim/guku.wav,1,19,69,26,,,space,1.51656007767,,,006,lmw,60.1200306742,prodShadow,2015_Aug_09_1440,midd,
target,kaka,stim/kaka.wav,1,20,70,28,,,space,1.40037798882,,,006,lmw,60.1200306742,prodShadow,2015_Aug_09_1440,midd,
distractor,eda,stim/eda.wav,1,21,71,18,,,space,1.45132303238,,,006,lmw,60.1200306742,prodShadow,2015_Aug_09_1440,midd,
target,peke,stim/peke.wav,1,22,72,37,,,space,1.38421607018,,,006,lmw,60.1200306742,prodShadow,2015_Aug_09_1440,midd,
pname,coco,stim/coco.wav,1,23,73,10,,,space,1.55051088333,,,006,lmw,60.1200306742,prodShadow,2015_Aug_09_1440,midd,
target,paka,stim/paka.wav,1,24,74,35,,,space,1.31736087799,,,006,lmw,60.1200306742,prodShadow,2015_Aug_09_1440,midd,
pname,dado,stim/dado.wav,1,25,75,11,,,space,1.51675486565,,,006,lmw,60.1200306742,prodShadow,2015_Aug_09_1440,midd,
target,taka,stim/taka.wav,1,26,76,43,,,space,1.23451089859,,,006,lmw,60.1200306742,prodShadow,2015_Aug_09_1440,midd,
target,buku,stim/buku.wav,1,27,77,8,,,space,1.43367004395,,,006,lmw,60.1200306742,prodShadow,2015_Aug_09_1440,midd,
pname,bola,stim/bola.wav,1,28,78,7,,,space,1.45035099983,,,006,lmw,60.1200306742,prodShadow,2015_Aug_09_1440,midd,
distractor,uta,stim/uta.wav,1,29,79,49,,,space,1.26697683334,,,006,lmw,60.1200306742,prodShadow,2015_Aug_09_1440,midd,
target,puku,stim/puku.wav,1,30,80,41,,,space,1.41747879982,,,006,lmw,60.1200306742,prodShadow,2015_Aug_09_1440,midd,
target,diki,stim/diki.wav,1,31,81,14,,,space,1.36730694771,,,006,lmw,60.1200306742,prodShadow,2015_Aug_09_1440,midd,
target,tuku,stim/tuku.wav,1,32,82,48,,,space,1.48409509659,,,006,lmw,60.1200306742,prodShadow,2015_Aug_09_1440,midd,
target,baka,stim/baka.wav,1,33,83,2,,,space,1.4340929985,,,006,lmw,60.1200306742,prodShadow,2015_Aug_09_1440,midd,
target,koko,stim/koko.wav,1,34,84,31,,,space,1.48342013359,,,006,lmw,60.1200306742,prodShadow,2015_Aug_09_1440,midd,
pname,polo,stim/polo.wav,1,35,85,40,,,space,1.33441209793,,,006,lmw,60.1200306742,prodShadow,2015_Aug_09_1440,midd,
distractor,epa,stim/epa.wav,1,36,86,19,,,space,1.36727786064,,,006,lmw,60.1200306742,prodShadow,2015_Aug_09_1440,midd,
target,goko,stim/goko.wav,1,37,87,24,,,space,1.38443994522,,,006,lmw,60.1200306742,prodShadow,2015_Aug_09_1440,midd,
target,keke,stim/keke.wav,1,38,88,29,,,space,1.33511590958,,,006,lmw,60.1200306742,prodShadow,2015_Aug_09_1440,midd,
target,giki,stim/giki.wav,1,39,89,23,,,space,1.35133504868,,,006,lmw,60.1200306742,prodShadow,2015_Aug_09_1440,midd,
target,tiki,stim/tiki.wav,1,40,90,45,,,space,1.5004658699,,,006,lmw,60.1200306742,prodShadow,2015_Aug_09_1440,midd,
pname,topo,stim/topo.wav,1,41,91,46,,,space,1.40104198456,,,006,lmw,60.1200306742,prodShadow,2015_Aug_09_1440,midd,
target,daka,stim/daka.wav,1,42,92,12,,,space,1.51717615128,,,006,lmw,60.1200306742,prodShadow,2015_Aug_09_1440,midd,
pname,palo,stim/palo.wav,1,43,93,36,,,space,1.46731305122,,,006,lmw,60.1200306742,prodShadow,2015_Aug_09_1440,midd,
target,boko,stim/boko.wav,1,44,94,6,,,space,1.48364901543,,,006,lmw,60.1200306742,prodShadow,2015_Aug_09_1440,midd,
target,doko,stim/doko.wav,1,45,95,16,,,space,1.56749010086,,,006,lmw,60.1200306742,prodShadow,2015_Aug_09_1440,midd,
target,piki,stim/piki.wav,1,46,96,38,,,space,1.08396697044,,,006,lmw,60.1200306742,prodShadow,2015_Aug_09_1440,midd,
target,duku,stim/duku.wav,1,47,97,17,,,space,1.31664299965,,,006,lmw,60.1200306742,prodShadow,2015_Aug_09_1440,midd,
pname,gato,stim/gato.wav,1,48,98,21,,,space,1.38393497467,,,006,lmw,60.1200306742,prodShadow,2015_Aug_09_1440,midd,
distractor,ita,stim/ita.wav,1,49,99,27,,,space,1.2336461544,,,006,lmw,60.1200306742,prodShadow,2015_Aug_09_1440,midd,
target,kaka,stim/kaka.wav,2,0,100,28,,,space,1.25070905685,,,006,lmw,60.1200306742,prodShadow,2015_Aug_09_1440,midd,
target,keke,stim/keke.wav,2,1,101,29,,,space,1.3170478344,,,006,lmw,60.1200306742,prodShadow,2015_Aug_09_1440,midd,
pname,caca,stim/caca.wav,2,2,102,9,,,space,1.60043311119,,,006,lmw,60.1200306742,prodShadow,2015_Aug_09_1440,midd,
target,tiki,stim/tiki.wav,2,3,103,45,,,space,1.36804914474,,,006,lmw,60.1200306742,prodShadow,2015_Aug_09_1440,midd,
target,daka,stim/daka.wav,2,4,104,12,,,space,1.71685194969,,,006,lmw,60.1200306742,prodShadow,2015_Aug_09_1440,midd,
pname,polo,stim/polo.wav,2,5,105,40,,,space,1.65049791336,,,006,lmw,60.1200306742,prodShadow,2015_Aug_09_1440,midd,
target,puku,stim/puku.wav,2,6,106,41,,,space,1.51729202271,,,006,lmw,60.1200306742,prodShadow,2015_Aug_09_1440,midd,
target,toko,stim/toko.wav,2,7,107,47,,,space,1.60126805305,,,006,lmw,60.1200306742,prodShadow,2015_Aug_09_1440,midd,
distractor,apa,stim/apa.wav,2,8,108,1,,,space,1.48450684547,,,006,lmw,60.1200306742,prodShadow,2015_Aug_09_1440,midd,
target,piki,stim/piki.wav,2,9,109,38,,,space,1.31736207008,,,006,lmw,60.1200306742,prodShadow,2015_Aug_09_1440,midd,
target,baka,stim/baka.wav,2,10,110,2,,,space,1.38338303566,,,006,lmw,60.1200306742,prodShadow,2015_Aug_09_1440,midd,
distractor,ita,stim/ita.wav,2,11,111,27,,,space,1.50039219856,,,006,lmw,60.1200306742,prodShadow,2015_Aug_09_1440,midd,
target,taka,stim/taka.wav,2,12,112,43,,,space,1.56732797623,,,006,lmw,60.1200306742,prodShadow,2015_Aug_09_1440,midd,
target,deke,stim/deke.wav,2,13,113,13,,,space,1.78454995155,,,006,lmw,60.1200306742,prodShadow,2015_Aug_09_1440,midd,
pname,gota,stim/gota.wav,2,14,114,25,,,space,1.5678358078,,,006,lmw,60.1200306742,prodShadow,2015_Aug_09_1440,midd,
distractor,ada,stim/ada.wav,2,15,115,0,,,space,1.4177069664,,,006,lmw,60.1200306742,prodShadow,2015_Aug_09_1440,midd,
target,boko,stim/boko.wav,2,16,116,6,,,space,1.36731815338,,,006,lmw,60.1200306742,prodShadow,2015_Aug_09_1440,midd,
target,peke,stim/peke.wav,2,17,117,37,,,space,1.28365111351,,,006,lmw,60.1200306742,prodShadow,2015_Aug_09_1440,midd,
target,kuku,stim/kuku.wav,2,18,118,32,,,space,1.4677259922,,,006,lmw,60.1200306742,prodShadow,2015_Aug_09_1440,midd,
pname,taco,stim/taco.wav,2,19,119,42,,,space,1.53334403038,,,006,lmw,60.1200306742,prodShadow,2015_Aug_09_1440,midd,
distractor,epa,stim/epa.wav,2,20,120,19,,,space,1.40046095848,,,006,lmw,60.1200306742,prodShadow,2015_Aug_09_1440,midd,
pname,dado,stim/dado.wav,2,21,121,11,,,space,1.58392190933,,,006,lmw,60.1200306742,prodShadow,2015_Aug_09_1440,midd,
pname,dodo,stim/dodo.wav,2,22,122,15,,,space,1.38353419304,,,006,lmw,60.1200306742,prodShadow,2015_Aug_09_1440,midd,
pname,topo,stim/topo.wav,2,23,123,46,,,space,1.48413896561,,,006,lmw,60.1200306742,prodShadow,2015_Aug_09_1440,midd,
pname,coco,stim/coco.wav,2,24,124,10,,,space,1.41755008698,,,006,lmw,60.1200306742,prodShadow,2015_Aug_09_1440,midd,
distractor,eda,stim/eda.wav,2,25,125,18,,,space,1.31739807129,,,006,lmw,60.1200306742,prodShadow,2015_Aug_09_1440,midd,
target,guku,stim/guku.wav,2,26,126,26,,,space,1.28358006477,,,006,lmw,60.1200306742,prodShadow,2015_Aug_09_1440,midd,
target,duku,stim/duku.wav,2,27,127,17,,,space,1.41746282578,,,006,lmw,60.1200306742,prodShadow,2015_Aug_09_1440,midd,
target,goko,stim/goko.wav,2,28,128,24,,,space,1.30055618286,,,006,lmw,60.1200306742,prodShadow,2015_Aug_09_1440,midd,
target,kiki,stim/kiki.wav,2,29,129,30,,,space,1.46759700775,,,006,lmw,60.1200306742,prodShadow,2015_Aug_09_1440,midd,
target,koko,stim/koko.wav,2,30,130,31,,,space,1.53412914276,,,006,lmw,60.1200306742,prodShadow,2015_Aug_09_1440,midd,
distractor,oba,stim/oba.wav,2,31,131,33,,,space,1.43455505371,,,006,lmw,60.1200306742,prodShadow,2015_Aug_09_1440,midd,
target,geke,stim/geke.wav,2,32,132,22,,,space,1.36802411079,,,006,lmw,60.1200306742,prodShadow,2015_Aug_09_1440,midd,
target,teke,stim/teke.wav,2,33,133,44,,,space,1.384070158,,,006,lmw,60.1200306742,prodShadow,2015_Aug_09_1440,midd,
target,paka,stim/paka.wav,2,34,134,35,,,space,1.28379797935,,,006,lmw,60.1200306742,prodShadow,2015_Aug_09_1440,midd,
target,beke,stim/beke.wav,2,35,135,4,,,space,1.63421797752,,,006,lmw,60.1200306742,prodShadow,2015_Aug_09_1440,midd,
distractor,oka,stim/oka.wav,2,36,136,34,,,space,1.28437304497,,,006,lmw,60.1200306742,prodShadow,2015_Aug_09_1440,midd,
target,buku,stim/buku.wav,2,37,137,8,,,space,1.55025887489,,,006,lmw,60.1200306742,prodShadow,2015_Aug_09_1440,midd,
pname,bala,stim/bala.wav,2,38,138,3,,,space,1.28420305252,,,006,lmw,60.1200306742,prodShadow,2015_Aug_09_1440,midd,
target,poko,stim/poko.wav,2,39,139,39,,,space,1.28453993797,,,006,lmw,60.1200306742,prodShadow,2015_Aug_09_1440,midd,
target,biki,stim/biki.wav,2,40,140,5,,,space,1.36687111855,,,006,lmw,60.1200306742,prodShadow,2015_Aug_09_1440,midd,
target,gaka,stim/gaka.wav,2,41,141,20,,,space,1.49965810776,,,006,lmw,60.1200306742,prodShadow,2015_Aug_09_1440,midd,
pname,bola,stim/bola.wav,2,42,142,7,,,space,1.55104184151,,,006,lmw,60.1200306742,prodShadow,2015_Aug_09_1440,midd,
distractor,uta,stim/uta.wav,2,43,143,49,,,space,1.25104498863,,,006,lmw,60.1200306742,prodShadow,2015_Aug_09_1440,midd,
target,tuku,stim/tuku.wav,2,44,144,48,,,space,1.40106606483,,,006,lmw,60.1200306742,prodShadow,2015_Aug_09_1440,midd,
pname,palo,stim/palo.wav,2,45,145,36,,,space,1.43448591232,,,006,lmw,60.1200306742,prodShadow,2015_Aug_09_1440,midd,
target,doko,stim/doko.wav,2,46,146,16,,,space,1.48458099365,,,006,lmw,60.1200306742,prodShadow,2015_Aug_09_1440,midd,
target,giki,stim/giki.wav,2,47,147,23,,,space,1.23405599594,,,006,lmw,60.1200306742,prodShadow,2015_Aug_09_1440,midd,
target,diki,stim/diki.wav,2,48,148,14,,,space,1.48399591446,,,006,lmw,60.1200306742,prodShadow,2015_Aug_09_1440,midd,
pname,gato,stim/gato.wav,2,49,149,21,,,space,1.70048117638,,,006,lmw,60.1200306742,prodShadow,2015_Aug_09_1440,midd,
,,,,,,,,,,,space,4.1337211132,006,lmw,60.1200306742,prodShadow,2015_Aug_09_1440,midd,
