status,text,stim,trials.thisRepN,trials.thisTrialN,trials.thisN,trials.thisIndex,key_resp_3.keys,key_resp_3.rt,key_resp_2.keys,key_resp_2.rt,key_resp_4.keys,key_resp_4.rt,session,participant,frameRate,expName,date,condition,
,,,,,,,space,4.38075304031,,,,,001,elisaBi,59.964630009,prodShadow,2015_Dec_02_1208,tuc,
target,paka,stim/paka.wav,0,0,0,35,,,space,3.03431200981,,,001,elisaBi,59.964630009,prodShadow,2015_Dec_02_1208,tuc,
target,tiki,stim/tiki.wav,0,1,1,45,,,space,1.90411114693,,,001,elisaBi,59.964630009,prodShadow,2015_Dec_02_1208,tuc,
target,giki,stim/giki.wav,0,2,2,23,,,space,1.80048179626,,,001,elisaBi,59.964630009,prodShadow,2015_Dec_02_1208,tuc,
target,kuku,stim/kuku.wav,0,3,3,32,,,space,2.20079994202,,,001,elisaBi,59.964630009,prodShadow,2015_Dec_02_1208,tuc,
distractor,eda,stim/eda.wav,0,4,4,18,,,space,2.08421897888,,,001,elisaBi,59.964630009,prodShadow,2015_Dec_02_1208,tuc,
pname,bala,stim/bala.wav,0,5,5,3,,,space,1.63229107857,,,001,elisaBi,59.964630009,prodShadow,2015_Dec_02_1208,tuc,
target,toko,stim/toko.wav,0,6,6,47,,,space,1.46369194984,,,001,elisaBi,59.964630009,prodShadow,2015_Dec_02_1208,tuc,
distractor,ada,stim/ada.wav,0,7,7,0,,,space,2.03066182137,,,001,elisaBi,59.964630009,prodShadow,2015_Dec_02_1208,tuc,
pname,gato,stim/gato.wav,0,8,8,21,,,space,2.85103106499,,,001,elisaBi,59.964630009,prodShadow,2015_Dec_02_1208,tuc,
target,koko,stim/koko.wav,0,9,9,31,,,space,0.933835983276,,,001,elisaBi,59.964630009,prodShadow,2015_Dec_02_1208,tuc,
pname,polo,stim/polo.wav,0,10,10,40,,,space,1.01691889763,,,001,elisaBi,59.964630009,prodShadow,2015_Dec_02_1208,tuc,
target,goko,stim/goko.wav,0,11,11,24,,,space,1.36719799042,,,001,elisaBi,59.964630009,prodShadow,2015_Dec_02_1208,tuc,
target,kaka,stim/kaka.wav,0,12,12,28,,,space,1.03401303291,,,001,elisaBi,59.964630009,prodShadow,2015_Dec_02_1208,tuc,
target,keke,stim/keke.wav,0,13,13,29,,,space,1.4837539196,,,001,elisaBi,59.964630009,prodShadow,2015_Dec_02_1208,tuc,
distractor,ita,stim/ita.wav,0,14,14,27,,,space,1.06744599342,,,001,elisaBi,59.964630009,prodShadow,2015_Dec_02_1208,tuc,
target,taka,stim/taka.wav,0,15,15,43,,,space,1.65099596977,,,001,elisaBi,59.964630009,prodShadow,2015_Dec_02_1208,tuc,
pname,coco,stim/coco.wav,0,16,16,10,,,space,1.38405489922,,,001,elisaBi,59.964630009,prodShadow,2015_Dec_02_1208,tuc,
distractor,epa,stim/epa.wav,0,17,17,19,,,space,1.18386387825,,,001,elisaBi,59.964630009,prodShadow,2015_Dec_02_1208,tuc,
pname,bola,stim/bola.wav,0,18,18,7,,,space,1.53415393829,,,001,elisaBi,59.964630009,prodShadow,2015_Dec_02_1208,tuc,
pname,dado,stim/dado.wav,0,19,19,11,,,space,1.00348997116,,,001,elisaBi,59.964630009,prodShadow,2015_Dec_02_1208,tuc,
pname,caca,stim/caca.wav,0,20,20,9,,,space,1.60101985931,,,001,elisaBi,59.964630009,prodShadow,2015_Dec_02_1208,tuc,
distractor,oba,stim/oba.wav,0,21,21,33,,,space,1.36739087105,,,001,elisaBi,59.964630009,prodShadow,2015_Dec_02_1208,tuc,
target,daka,stim/daka.wav,0,22,22,12,,,space,2.11381411552,,,001,elisaBi,59.964630009,prodShadow,2015_Dec_02_1208,tuc,
target,piki,stim/piki.wav,0,23,23,38,,,space,1.73395800591,,,001,elisaBi,59.964630009,prodShadow,2015_Dec_02_1208,tuc,
target,poko,stim/poko.wav,0,24,24,39,,,space,1.53415489197,,,001,elisaBi,59.964630009,prodShadow,2015_Dec_02_1208,tuc,
distractor,uta,stim/uta.wav,0,25,25,49,,,space,1.11768102646,,,001,elisaBi,59.964630009,prodShadow,2015_Dec_02_1208,tuc,
target,buku,stim/buku.wav,0,26,26,8,,,space,1.45419812202,,,001,elisaBi,59.964630009,prodShadow,2015_Dec_02_1208,tuc,
pname,taco,stim/taco.wav,0,27,27,42,,,space,1.55058908463,,,001,elisaBi,59.964630009,prodShadow,2015_Dec_02_1208,tuc,
pname,gota,stim/gota.wav,0,28,28,25,,,space,1.38771891594,,,001,elisaBi,59.964630009,prodShadow,2015_Dec_02_1208,tuc,
target,puku,stim/puku.wav,0,29,29,41,,,space,1.26753306389,,,001,elisaBi,59.964630009,prodShadow,2015_Dec_02_1208,tuc,
target,guku,stim/guku.wav,0,30,30,26,,,space,1.30055880547,,,001,elisaBi,59.964630009,prodShadow,2015_Dec_02_1208,tuc,
target,deke,stim/deke.wav,0,31,31,13,,,space,0.950673818588,,,001,elisaBi,59.964630009,prodShadow,2015_Dec_02_1208,tuc,
target,gaka,stim/gaka.wav,0,32,32,20,,,space,1.2005469799,,,001,elisaBi,59.964630009,prodShadow,2015_Dec_02_1208,tuc,
target,biki,stim/biki.wav,0,33,33,5,,,space,0.98438000679,,,001,elisaBi,59.964630009,prodShadow,2015_Dec_02_1208,tuc,
target,baka,stim/baka.wav,0,34,34,2,,,space,1.500674963,,,001,elisaBi,59.964630009,prodShadow,2015_Dec_02_1208,tuc,
pname,topo,stim/topo.wav,0,35,35,46,,,space,1.20014095306,,,001,elisaBi,59.964630009,prodShadow,2015_Dec_02_1208,tuc,
target,duku,stim/duku.wav,0,36,36,17,,,space,1.13380599022,,,001,elisaBi,59.964630009,prodShadow,2015_Dec_02_1208,tuc,
target,diki,stim/diki.wav,0,37,37,14,,,space,0.95100402832,,,001,elisaBi,59.964630009,prodShadow,2015_Dec_02_1208,tuc,
pname,dodo,stim/dodo.wav,0,38,38,15,,,space,1.02080512047,,,001,elisaBi,59.964630009,prodShadow,2015_Dec_02_1208,tuc,
distractor,apa,stim/apa.wav,0,39,39,1,,,space,1.0508658886,,,001,elisaBi,59.964630009,prodShadow,2015_Dec_02_1208,tuc,
pname,palo,stim/palo.wav,0,40,40,36,,,space,0.850628852844,,,001,elisaBi,59.964630009,prodShadow,2015_Dec_02_1208,tuc,
target,kiki,stim/kiki.wav,0,41,41,30,,,space,1.26724481583,,,001,elisaBi,59.964630009,prodShadow,2015_Dec_02_1208,tuc,
target,beke,stim/beke.wav,0,42,42,4,,,space,0.853791952133,,,001,elisaBi,59.964630009,prodShadow,2015_Dec_02_1208,tuc,
target,tuku,stim/tuku.wav,0,43,43,48,,,space,1.0006070137,,,001,elisaBi,59.964630009,prodShadow,2015_Dec_02_1208,tuc,
target,peke,stim/peke.wav,0,44,44,37,,,space,0.900933980942,,,001,elisaBi,59.964630009,prodShadow,2015_Dec_02_1208,tuc,
target,doko,stim/doko.wav,0,45,45,16,,,space,1.86767601967,,,001,elisaBi,59.964630009,prodShadow,2015_Dec_02_1208,tuc,
distractor,oka,stim/oka.wav,0,46,46,34,,,space,0.804295063019,,,001,elisaBi,59.964630009,prodShadow,2015_Dec_02_1208,tuc,
target,teke,stim/teke.wav,0,47,47,44,,,space,1.18400907516,,,001,elisaBi,59.964630009,prodShadow,2015_Dec_02_1208,tuc,
target,boko,stim/boko.wav,0,48,48,6,,,space,1.08435797691,,,001,elisaBi,59.964630009,prodShadow,2015_Dec_02_1208,tuc,
target,geke,stim/geke.wav,0,49,49,22,,,space,1.83399796486,,,001,elisaBi,59.964630009,prodShadow,2015_Dec_02_1208,tuc,
target,kuku,stim/kuku.wav,1,0,50,32,,,space,1.20068597794,,,001,elisaBi,59.964630009,prodShadow,2015_Dec_02_1208,tuc,
pname,taco,stim/taco.wav,1,1,51,42,,,space,0.833686113358,,,001,elisaBi,59.964630009,prodShadow,2015_Dec_02_1208,tuc,
target,koko,stim/koko.wav,1,2,52,31,,,space,0.967810153961,,,001,elisaBi,59.964630009,prodShadow,2015_Dec_02_1208,tuc,
target,taka,stim/taka.wav,1,3,53,43,,,space,0.50065612793,,,001,elisaBi,59.964630009,prodShadow,2015_Dec_02_1208,tuc,
target,kiki,stim/kiki.wav,1,4,54,30,,,space,1.25094294548,,,001,elisaBi,59.964630009,prodShadow,2015_Dec_02_1208,tuc,
target,diki,stim/diki.wav,1,5,55,14,,,space,0.984130859375,,,001,elisaBi,59.964630009,prodShadow,2015_Dec_02_1208,tuc,
distractor,uta,stim/uta.wav,1,6,56,49,,,space,0.637567996979,,,001,elisaBi,59.964630009,prodShadow,2015_Dec_02_1208,tuc,
target,goko,stim/goko.wav,1,7,57,24,,,space,0.997091054916,,,001,elisaBi,59.964630009,prodShadow,2015_Dec_02_1208,tuc,
distractor,oka,stim/oka.wav,1,8,58,34,,,space,0.550692081451,,,001,elisaBi,59.964630009,prodShadow,2015_Dec_02_1208,tuc,
pname,coco,stim/coco.wav,1,9,59,10,,,space,1.11388611794,,,001,elisaBi,59.964630009,prodShadow,2015_Dec_02_1208,tuc,
target,kaka,stim/kaka.wav,1,10,60,28,,,space,1.23394417763,,,001,elisaBi,59.964630009,prodShadow,2015_Dec_02_1208,tuc,
target,daka,stim/daka.wav,1,11,61,12,,,space,0.520542860031,,,001,elisaBi,59.964630009,prodShadow,2015_Dec_02_1208,tuc,
target,poko,stim/poko.wav,1,12,62,39,,,space,0.767452955246,,,001,elisaBi,59.964630009,prodShadow,2015_Dec_02_1208,tuc,
pname,topo,stim/topo.wav,1,13,63,46,,,space,0.316998004913,,,001,elisaBi,59.964630009,prodShadow,2015_Dec_02_1208,tuc,
target,deke,stim/deke.wav,1,14,64,13,,,space,1.13415312767,,,001,elisaBi,59.964630009,prodShadow,2015_Dec_02_1208,tuc,
target,buku,stim/buku.wav,1,15,65,8,,,space,0.770718097687,,,001,elisaBi,59.964630009,prodShadow,2015_Dec_02_1208,tuc,
target,piki,stim/piki.wav,1,16,66,38,,,space,0.570670127869,,,001,elisaBi,59.964630009,prodShadow,2015_Dec_02_1208,tuc,
distractor,epa,stim/epa.wav,1,17,67,19,,,space,0.617228984833,,,001,elisaBi,59.964630009,prodShadow,2015_Dec_02_1208,tuc,
target,beke,stim/beke.wav,1,18,68,4,,,space,0.700184106827,,,001,elisaBi,59.964630009,prodShadow,2015_Dec_02_1208,tuc,
target,peke,stim/peke.wav,1,19,69,37,,,space,0.834461927414,,,001,elisaBi,59.964630009,prodShadow,2015_Dec_02_1208,tuc,
target,baka,stim/baka.wav,1,20,70,2,,,space,0.700670957565,,,001,elisaBi,59.964630009,prodShadow,2015_Dec_02_1208,tuc,
target,teke,stim/teke.wav,1,21,71,44,,,space,0.797116994858,,,001,elisaBi,59.964630009,prodShadow,2015_Dec_02_1208,tuc,
target,giki,stim/giki.wav,1,22,72,23,,,space,1.16776299477,,,001,elisaBi,59.964630009,prodShadow,2015_Dec_02_1208,tuc,
target,tuku,stim/tuku.wav,1,23,73,48,,,space,0.63399887085,,,001,elisaBi,59.964630009,prodShadow,2015_Dec_02_1208,tuc,
pname,gato,stim/gato.wav,1,24,74,21,,,space,0.700664043427,,,001,elisaBi,59.964630009,prodShadow,2015_Dec_02_1208,tuc,
target,toko,stim/toko.wav,1,25,75,47,,,space,0.850542068481,,,001,elisaBi,59.964630009,prodShadow,2015_Dec_02_1208,tuc,
target,boko,stim/boko.wav,1,26,76,6,,,space,0.750616073608,,,001,elisaBi,59.964630009,prodShadow,2015_Dec_02_1208,tuc,
pname,gota,stim/gota.wav,1,27,77,25,,,space,1.01731109619,,,001,elisaBi,59.964630009,prodShadow,2015_Dec_02_1208,tuc,
target,tiki,stim/tiki.wav,1,28,78,45,,,space,0.704227924347,,,001,elisaBi,59.964630009,prodShadow,2015_Dec_02_1208,tuc,
distractor,ada,stim/ada.wav,1,29,79,0,,,space,0.484076023102,,,001,elisaBi,59.964630009,prodShadow,2015_Dec_02_1208,tuc,
target,keke,stim/keke.wav,1,30,80,29,,,space,0.667085886002,,,001,elisaBi,59.964630009,prodShadow,2015_Dec_02_1208,tuc,
target,geke,stim/geke.wav,1,31,81,22,,,space,0.784478902817,,,001,elisaBi,59.964630009,prodShadow,2015_Dec_02_1208,tuc,
distractor,eda,stim/eda.wav,1,32,82,18,,,space,0.567552089691,,,001,elisaBi,59.964630009,prodShadow,2015_Dec_02_1208,tuc,
target,gaka,stim/gaka.wav,1,33,83,20,,,space,1.13369894028,,,001,elisaBi,59.964630009,prodShadow,2015_Dec_02_1208,tuc,
target,duku,stim/duku.wav,1,34,84,17,,,space,0.770693063736,,,001,elisaBi,59.964630009,prodShadow,2015_Dec_02_1208,tuc,
pname,polo,stim/polo.wav,1,35,85,40,,,space,0.667499065399,,,001,elisaBi,59.964630009,prodShadow,2015_Dec_02_1208,tuc,
distractor,ita,stim/ita.wav,1,36,86,27,,,space,0.617527008057,,,001,elisaBi,59.964630009,prodShadow,2015_Dec_02_1208,tuc,
pname,bala,stim/bala.wav,1,37,87,3,,,space,0.634026050568,,,001,elisaBi,59.964630009,prodShadow,2015_Dec_02_1208,tuc,
pname,caca,stim/caca.wav,1,38,88,9,,,space,0.637715101242,,,001,elisaBi,59.964630009,prodShadow,2015_Dec_02_1208,tuc,
target,biki,stim/biki.wav,1,39,89,5,,,space,0.713898181915,,,001,elisaBi,59.964630009,prodShadow,2015_Dec_02_1208,tuc,
pname,bola,stim/bola.wav,1,40,90,7,,,space,0.46729683876,,,001,elisaBi,59.964630009,prodShadow,2015_Dec_02_1208,tuc,
distractor,oba,stim/oba.wav,1,41,91,33,,,space,0.583617925644,,,001,elisaBi,59.964630009,prodShadow,2015_Dec_02_1208,tuc,
pname,dado,stim/dado.wav,1,42,92,11,,,space,0.587375164032,,,001,elisaBi,59.964630009,prodShadow,2015_Dec_02_1208,tuc,
pname,palo,stim/palo.wav,1,43,93,36,,,space,0.671065092087,,,001,elisaBi,59.964630009,prodShadow,2015_Dec_02_1208,tuc,
pname,dodo,stim/dodo.wav,1,44,94,15,,,space,0.97084403038,,,001,elisaBi,59.964630009,prodShadow,2015_Dec_02_1208,tuc,
target,doko,stim/doko.wav,1,45,95,16,,,space,0.49897813797,,,001,elisaBi,59.964630009,prodShadow,2015_Dec_02_1208,tuc,
target,paka,stim/paka.wav,1,46,96,35,,,space,0.58353805542,,,001,elisaBi,59.964630009,prodShadow,2015_Dec_02_1208,tuc,
target,puku,stim/puku.wav,1,47,97,41,,,space,0.317174196243,,,001,elisaBi,59.964630009,prodShadow,2015_Dec_02_1208,tuc,
distractor,apa,stim/apa.wav,1,48,98,1,,,space,0.300348043442,,,001,elisaBi,59.964630009,prodShadow,2015_Dec_02_1208,tuc,
target,guku,stim/guku.wav,1,49,99,26,,,space,0.534153938293,,,001,elisaBi,59.964630009,prodShadow,2015_Dec_02_1208,tuc,
pname,coco,stim/coco.wav,2,0,100,10,,,space,0.41690993309,,,001,elisaBi,59.964630009,prodShadow,2015_Dec_02_1208,tuc,
distractor,oba,stim/oba.wav,2,1,101,33,,,space,0.216984987259,,,001,elisaBi,59.964630009,prodShadow,2015_Dec_02_1208,tuc,
pname,polo,stim/polo.wav,2,2,102,40,,,space,0.447248935699,,,001,elisaBi,59.964630009,prodShadow,2015_Dec_02_1208,tuc,
target,boko,stim/boko.wav,2,3,103,6,,,space,0.330548048019,,,001,elisaBi,59.964630009,prodShadow,2015_Dec_02_1208,tuc,
target,duku,stim/duku.wav,2,4,104,17,,,space,0.283812999725,,,001,elisaBi,59.964630009,prodShadow,2015_Dec_02_1208,tuc,
pname,bola,stim/bola.wav,2,5,105,7,,,space,0.370628833771,,,001,elisaBi,59.964630009,prodShadow,2015_Dec_02_1208,tuc,
target,buku,stim/buku.wav,2,6,106,8,,,space,0.250411987305,,,001,elisaBi,59.964630009,prodShadow,2015_Dec_02_1208,tuc,
target,diki,stim/diki.wav,2,7,107,14,,,space,0.283940076828,,,001,elisaBi,59.964630009,prodShadow,2015_Dec_02_1208,tuc,
pname,dodo,stim/dodo.wav,2,8,108,15,,,space,0.896861076355,,,001,elisaBi,59.964630009,prodShadow,2015_Dec_02_1208,tuc,
target,puku,stim/puku.wav,2,9,109,41,,,space,0.21731710434,,,001,elisaBi,59.964630009,prodShadow,2015_Dec_02_1208,tuc,
distractor,eda,stim/eda.wav,2,10,110,18,,,space,0.266942024231,,,001,elisaBi,59.964630009,prodShadow,2015_Dec_02_1208,tuc,
pname,dado,stim/dado.wav,2,11,111,11,,,space,0.0669419765472,,,001,elisaBi,59.964630009,prodShadow,2015_Dec_02_1208,tuc,
pname,gato,stim/gato.wav,2,12,112,21,,,space,1.79714298248,,,001,elisaBi,59.964630009,prodShadow,2015_Dec_02_1208,tuc,
target,daka,stim/daka.wav,2,13,113,12,,,space,0.450194120407,,,001,elisaBi,59.964630009,prodShadow,2015_Dec_02_1208,tuc,
distractor,ita,stim/ita.wav,2,14,114,27,,,space,0.383980035782,,,001,elisaBi,59.964630009,prodShadow,2015_Dec_02_1208,tuc,
pname,topo,stim/topo.wav,2,15,115,46,,,space,0.420931100845,,,001,elisaBi,59.964630009,prodShadow,2015_Dec_02_1208,tuc,
target,kuku,stim/kuku.wav,2,16,116,32,,,space,0.647084951401,,,001,elisaBi,59.964630009,prodShadow,2015_Dec_02_1208,tuc,
distractor,oka,stim/oka.wav,2,17,117,34,,,space,0.370981931686,,,001,elisaBi,59.964630009,prodShadow,2015_Dec_02_1208,tuc,
target,doko,stim/doko.wav,2,18,118,16,,,space,0.396968841553,,,001,elisaBi,59.964630009,prodShadow,2015_Dec_02_1208,tuc,
distractor,ada,stim/ada.wav,2,19,119,0,,,space,0.430115938187,,,001,elisaBi,59.964630009,prodShadow,2015_Dec_02_1208,tuc,
pname,gota,stim/gota.wav,2,20,120,25,,,space,0.53782916069,,,001,elisaBi,59.964630009,prodShadow,2015_Dec_02_1208,tuc,
pname,caca,stim/caca.wav,2,21,121,9,,,space,0.450354814529,,,001,elisaBi,59.964630009,prodShadow,2015_Dec_02_1208,tuc,
target,koko,stim/koko.wav,2,22,122,31,,,space,0.500339031219,,,001,elisaBi,59.964630009,prodShadow,2015_Dec_02_1208,tuc,
target,deke,stim/deke.wav,2,23,123,13,,,space,0.517404079437,,,001,elisaBi,59.964630009,prodShadow,2015_Dec_02_1208,tuc,
target,beke,stim/beke.wav,2,24,124,4,,,space,0.467190980911,,,001,elisaBi,59.964630009,prodShadow,2015_Dec_02_1208,tuc,
distractor,epa,stim/epa.wav,2,25,125,19,,,space,0.400800943375,,,001,elisaBi,59.964630009,prodShadow,2015_Dec_02_1208,tuc,
distractor,apa,stim/apa.wav,2,26,126,1,,,space,0.367136001587,,,001,elisaBi,59.964630009,prodShadow,2015_Dec_02_1208,tuc,
target,peke,stim/peke.wav,2,27,127,37,,,space,0.420769929886,,,001,elisaBi,59.964630009,prodShadow,2015_Dec_02_1208,tuc,
target,biki,stim/biki.wav,2,28,128,5,,,space,0.380155086517,,,001,elisaBi,59.964630009,prodShadow,2015_Dec_02_1208,tuc,
target,goko,stim/goko.wav,2,29,129,24,,,space,0.50080704689,,,001,elisaBi,59.964630009,prodShadow,2015_Dec_02_1208,tuc,
target,baka,stim/baka.wav,2,30,130,2,,,space,0.30112695694,,,001,elisaBi,59.964630009,prodShadow,2015_Dec_02_1208,tuc,
target,piki,stim/piki.wav,2,31,131,38,,,space,0.567035913467,,,001,elisaBi,59.964630009,prodShadow,2015_Dec_02_1208,tuc,
target,keke,stim/keke.wav,2,32,132,29,,,space,1.05416297913,,,001,elisaBi,59.964630009,prodShadow,2015_Dec_02_1208,tuc,
target,geke,stim/geke.wav,2,33,133,22,,,space,0.967000961304,,,001,elisaBi,59.964630009,prodShadow,2015_Dec_02_1208,tuc,
target,tuku,stim/tuku.wav,2,34,134,48,,,space,0.317159891129,,,001,elisaBi,59.964630009,prodShadow,2015_Dec_02_1208,tuc,
target,teke,stim/teke.wav,2,35,135,44,,,space,0.134061098099,,,001,elisaBi,59.964630009,prodShadow,2015_Dec_02_1208,tuc,
target,kiki,stim/kiki.wav,2,36,136,30,,,space,0.0505788326263,,,001,elisaBi,59.964630009,prodShadow,2015_Dec_02_1208,tuc,
target,giki,stim/giki.wav,2,37,137,23,,,space,0.784081935883,,,001,elisaBi,59.964630009,prodShadow,2015_Dec_02_1208,tuc,
target,tiki,stim/tiki.wav,2,38,138,45,,,space,0.287551164627,,,001,elisaBi,59.964630009,prodShadow,2015_Dec_02_1208,tuc,
target,toko,stim/toko.wav,2,39,139,47,,,space,0.283659934998,,,001,elisaBi,59.964630009,prodShadow,2015_Dec_02_1208,tuc,
target,paka,stim/paka.wav,2,40,140,35,,,space,0.333724021912,,,001,elisaBi,59.964630009,prodShadow,2015_Dec_02_1208,tuc,
target,poko,stim/poko.wav,2,41,141,39,,,space,0.27125287056,,,001,elisaBi,59.964630009,prodShadow,2015_Dec_02_1208,tuc,
target,taka,stim/taka.wav,2,42,142,43,,,space,0.417346954346,,,001,elisaBi,59.964630009,prodShadow,2015_Dec_02_1208,tuc,
target,guku,stim/guku.wav,2,43,143,26,,,space,0.86700296402,,,001,elisaBi,59.964630009,prodShadow,2015_Dec_02_1208,tuc,
target,gaka,stim/gaka.wav,2,44,144,20,,,space,0.867319107056,,,001,elisaBi,59.964630009,prodShadow,2015_Dec_02_1208,tuc,
pname,palo,stim/palo.wav,2,45,145,36,,,space,0.284034013748,,,001,elisaBi,59.964630009,prodShadow,2015_Dec_02_1208,tuc,
pname,bala,stim/bala.wav,2,46,146,3,,,space,0.250478029251,,,001,elisaBi,59.964630009,prodShadow,2015_Dec_02_1208,tuc,
pname,taco,stim/taco.wav,2,47,147,42,,,space,0.250258922577,,,001,elisaBi,59.964630009,prodShadow,2015_Dec_02_1208,tuc,
target,kaka,stim/kaka.wav,2,48,148,28,,,space,0.466982126236,,,001,elisaBi,59.964630009,prodShadow,2015_Dec_02_1208,tuc,
distractor,uta,stim/uta.wav,2,49,149,49,,,space,0.300453186035,,,001,elisaBi,59.964630009,prodShadow,2015_Dec_02_1208,tuc,
,,,,,,,,,,,space,1.14989113808,001,elisaBi,59.964630009,prodShadow,2015_Dec_02_1208,tuc,
