status,text,stim,trials.thisRepN,trials.thisTrialN,trials.thisN,trials.thisIndex,key_resp_3.keys,key_resp_3.rt,key_resp_2.keys,key_resp_2.rt,key_resp_4.keys,key_resp_4.rt,session,participant,frameRate,expName,date,condition,
,,,,,,,space,0.183925867081,,,,,002,djv,59.8913352344,prodShadow,2015_Jul_12_1549,midd,
pname,palo,stim/palo.wav,0,0,0,36,,,space,2.85122203827,,,002,djv,59.8913352344,prodShadow,2015_Jul_12_1549,midd,
target,deke,stim/deke.wav,0,1,1,13,,,space,2.33440589905,,,002,djv,59.8913352344,prodShadow,2015_Jul_12_1549,midd,
pname,topo,stim/topo.wav,0,2,2,46,,,space,1.9342250824,,,002,djv,59.8913352344,prodShadow,2015_Jul_12_1549,midd,
target,duku,stim/duku.wav,0,3,3,17,,,space,1.93442296982,,,002,djv,59.8913352344,prodShadow,2015_Jul_12_1549,midd,
pname,gota,stim/gota.wav,0,4,4,25,,,space,1.98416686058,,,002,djv,59.8913352344,prodShadow,2015_Jul_12_1549,midd,
target,diki,stim/diki.wav,0,5,5,14,,,space,1.53403806686,,,002,djv,59.8913352344,prodShadow,2015_Jul_12_1549,midd,
distractor,eda,stim/eda.wav,0,6,6,18,,,space,1.76753902435,,,002,djv,59.8913352344,prodShadow,2015_Jul_12_1549,midd,
target,tuku,stim/tuku.wav,0,7,7,48,,,space,1.83418798447,,,002,djv,59.8913352344,prodShadow,2015_Jul_12_1549,midd,
pname,bola,stim/bola.wav,0,8,8,7,,,space,2.18496704102,,,002,djv,59.8913352344,prodShadow,2015_Jul_12_1549,midd,
target,baka,stim/baka.wav,0,9,9,2,,,space,1.96767687798,,,002,djv,59.8913352344,prodShadow,2015_Jul_12_1549,midd,
target,beke,stim/beke.wav,0,10,10,4,,,space,2.33409404755,,,002,djv,59.8913352344,prodShadow,2015_Jul_12_1549,midd,
target,toko,stim/toko.wav,0,11,11,47,,,space,2.4675321579,,,002,djv,59.8913352344,prodShadow,2015_Jul_12_1549,midd,
distractor,oba,stim/oba.wav,0,12,12,33,,,space,2.20061612129,,,002,djv,59.8913352344,prodShadow,2015_Jul_12_1549,midd,
target,poko,stim/poko.wav,0,13,13,39,,,space,1.96697807312,,,002,djv,59.8913352344,prodShadow,2015_Jul_12_1549,midd,
pname,coco,stim/coco.wav,0,14,14,10,,,space,1.96739912033,,,002,djv,59.8913352344,prodShadow,2015_Jul_12_1549,midd,
pname,gato,stim/gato.wav,0,15,15,21,,,space,2.31801605225,,,002,djv,59.8913352344,prodShadow,2015_Jul_12_1549,midd,
target,puku,stim/puku.wav,0,16,16,41,,,space,1.95069003105,,,002,djv,59.8913352344,prodShadow,2015_Jul_12_1549,midd,
distractor,ita,stim/ita.wav,0,17,17,27,,,space,1.86773109436,,,002,djv,59.8913352344,prodShadow,2015_Jul_12_1549,midd,
distractor,uta,stim/uta.wav,0,18,18,49,,,space,1.80080199242,,,002,djv,59.8913352344,prodShadow,2015_Jul_12_1549,midd,
pname,dodo,stim/dodo.wav,0,19,19,15,,,space,2.06744408607,,,002,djv,59.8913352344,prodShadow,2015_Jul_12_1549,midd,
target,geke,stim/geke.wav,0,20,20,22,,,space,2.05090284348,,,002,djv,59.8913352344,prodShadow,2015_Jul_12_1549,midd,
target,tiki,stim/tiki.wav,0,21,21,45,,,space,1.717441082,,,002,djv,59.8913352344,prodShadow,2015_Jul_12_1549,midd,
target,paka,stim/paka.wav,0,22,22,35,,,space,1.66728401184,,,002,djv,59.8913352344,prodShadow,2015_Jul_12_1549,midd,
target,daka,stim/daka.wav,0,23,23,12,,,space,1.65102791786,,,002,djv,59.8913352344,prodShadow,2015_Jul_12_1549,midd,
distractor,oka,stim/oka.wav,0,24,24,34,,,space,2.06746196747,,,002,djv,59.8913352344,prodShadow,2015_Jul_12_1549,midd,
target,goko,stim/goko.wav,0,25,25,24,,,space,1.81819796562,,,002,djv,59.8913352344,prodShadow,2015_Jul_12_1549,midd,
target,kiki,stim/kiki.wav,0,26,26,30,,,space,1.88410997391,,,002,djv,59.8913352344,prodShadow,2015_Jul_12_1549,midd,
target,boko,stim/boko.wav,0,27,27,6,,,space,1.85036706924,,,002,djv,59.8913352344,prodShadow,2015_Jul_12_1549,midd,
target,kuku,stim/kuku.wav,0,28,28,32,,,space,1.58435606956,,,002,djv,59.8913352344,prodShadow,2015_Jul_12_1549,midd,
target,doko,stim/doko.wav,0,29,29,16,,,space,1.88462400436,,,002,djv,59.8913352344,prodShadow,2015_Jul_12_1549,midd,
target,taka,stim/taka.wav,0,30,30,43,,,space,1.80069899559,,,002,djv,59.8913352344,prodShadow,2015_Jul_12_1549,midd,
target,kaka,stim/kaka.wav,0,31,31,28,,,space,1.88426780701,,,002,djv,59.8913352344,prodShadow,2015_Jul_12_1549,midd,
distractor,epa,stim/epa.wav,0,32,32,19,,,space,1.63474702835,,,002,djv,59.8913352344,prodShadow,2015_Jul_12_1549,midd,
distractor,ada,stim/ada.wav,0,33,33,0,,,space,1.80083012581,,,002,djv,59.8913352344,prodShadow,2015_Jul_12_1549,midd,
target,guku,stim/guku.wav,0,34,34,26,,,space,1.75041604042,,,002,djv,59.8913352344,prodShadow,2015_Jul_12_1549,midd,
target,piki,stim/piki.wav,0,35,35,38,,,space,1.71783208847,,,002,djv,59.8913352344,prodShadow,2015_Jul_12_1549,midd,
target,peke,stim/peke.wav,0,36,36,37,,,space,1.58385801315,,,002,djv,59.8913352344,prodShadow,2015_Jul_12_1549,midd,
target,teke,stim/teke.wav,0,37,37,44,,,space,1.66795706749,,,002,djv,59.8913352344,prodShadow,2015_Jul_12_1549,midd,
pname,dado,stim/dado.wav,0,38,38,11,,,space,1.91714096069,,,002,djv,59.8913352344,prodShadow,2015_Jul_12_1549,midd,
target,keke,stim/keke.wav,0,39,39,29,,,space,1.76800084114,,,002,djv,59.8913352344,prodShadow,2015_Jul_12_1549,midd,
target,koko,stim/koko.wav,0,40,40,31,,,space,1.65050697327,,,002,djv,59.8913352344,prodShadow,2015_Jul_12_1549,midd,
pname,bala,stim/bala.wav,0,41,41,3,,,space,1.90142512321,,,002,djv,59.8913352344,prodShadow,2015_Jul_12_1549,midd,
target,buku,stim/buku.wav,0,42,42,8,,,space,1.76744914055,,,002,djv,59.8913352344,prodShadow,2015_Jul_12_1549,midd,
pname,polo,stim/polo.wav,0,43,43,40,,,space,1.80043292046,,,002,djv,59.8913352344,prodShadow,2015_Jul_12_1549,midd,
target,gaka,stim/gaka.wav,0,44,44,20,,,space,1.9831700325,,,002,djv,59.8913352344,prodShadow,2015_Jul_12_1549,midd,
target,giki,stim/giki.wav,0,45,45,23,,,space,1.75064778328,,,002,djv,59.8913352344,prodShadow,2015_Jul_12_1549,midd,
target,biki,stim/biki.wav,0,46,46,5,,,space,1.96667504311,,,002,djv,59.8913352344,prodShadow,2015_Jul_12_1549,midd,
pname,taco,stim/taco.wav,0,47,47,42,,,space,1.80156612396,,,002,djv,59.8913352344,prodShadow,2015_Jul_12_1549,midd,
distractor,apa,stim/apa.wav,0,48,48,1,,,space,1.86718797684,,,002,djv,59.8913352344,prodShadow,2015_Jul_12_1549,midd,
pname,caca,stim/caca.wav,0,49,49,9,,,space,1.75167798996,,,002,djv,59.8913352344,prodShadow,2015_Jul_12_1549,midd,
pname,topo,stim/topo.wav,1,0,50,46,,,space,1.88388800621,,,002,djv,59.8913352344,prodShadow,2015_Jul_12_1549,midd,
target,teke,stim/teke.wav,1,1,51,44,,,space,1.6680970192,,,002,djv,59.8913352344,prodShadow,2015_Jul_12_1549,midd,
target,deke,stim/deke.wav,1,2,52,13,,,space,1.81790089607,,,002,djv,59.8913352344,prodShadow,2015_Jul_12_1549,midd,
target,piki,stim/piki.wav,1,3,53,38,,,space,1.31653785706,,,002,djv,59.8913352344,prodShadow,2015_Jul_12_1549,midd,
target,biki,stim/biki.wav,1,4,54,5,,,space,1.71753787994,,,002,djv,59.8913352344,prodShadow,2015_Jul_12_1549,midd,
pname,palo,stim/palo.wav,1,5,55,36,,,space,1.65025281906,,,002,djv,59.8913352344,prodShadow,2015_Jul_12_1549,midd,
target,daka,stim/daka.wav,1,6,56,12,,,space,1.76708102226,,,002,djv,59.8913352344,prodShadow,2015_Jul_12_1549,midd,
target,tiki,stim/tiki.wav,1,7,57,45,,,space,1.65088200569,,,002,djv,59.8913352344,prodShadow,2015_Jul_12_1549,midd,
target,duku,stim/duku.wav,1,8,58,17,,,space,1.78408813477,,,002,djv,59.8913352344,prodShadow,2015_Jul_12_1549,midd,
pname,dado,stim/dado.wav,1,9,59,11,,,space,2.03418397903,,,002,djv,59.8913352344,prodShadow,2015_Jul_12_1549,midd,
pname,polo,stim/polo.wav,1,10,60,40,,,space,1.56666016579,,,002,djv,59.8913352344,prodShadow,2015_Jul_12_1549,midd,
distractor,uta,stim/uta.wav,1,11,61,49,,,space,1.65069389343,,,002,djv,59.8913352344,prodShadow,2015_Jul_12_1549,midd,
target,guku,stim/guku.wav,1,12,62,26,,,space,1.90084886551,,,002,djv,59.8913352344,prodShadow,2015_Jul_12_1549,midd,
target,koko,stim/koko.wav,1,13,63,31,,,space,1.78523302078,,,002,djv,59.8913352344,prodShadow,2015_Jul_12_1549,midd,
target,buku,stim/buku.wav,1,14,64,8,,,space,1.86865401268,,,002,djv,59.8913352344,prodShadow,2015_Jul_12_1549,midd,
target,kuku,stim/kuku.wav,1,15,65,32,,,space,1.65128898621,,,002,djv,59.8913352344,prodShadow,2015_Jul_12_1549,midd,
target,baka,stim/baka.wav,1,16,66,2,,,space,1.60167002678,,,002,djv,59.8913352344,prodShadow,2015_Jul_12_1549,midd,
target,puku,stim/puku.wav,1,17,67,41,,,space,1.53424501419,,,002,djv,59.8913352344,prodShadow,2015_Jul_12_1549,midd,
distractor,ada,stim/ada.wav,1,18,68,0,,,space,1.75043010712,,,002,djv,59.8913352344,prodShadow,2015_Jul_12_1549,midd,
target,paka,stim/paka.wav,1,19,69,35,,,space,1.53506398201,,,002,djv,59.8913352344,prodShadow,2015_Jul_12_1549,midd,
target,tuku,stim/tuku.wav,1,20,70,48,,,space,1.65194511414,,,002,djv,59.8913352344,prodShadow,2015_Jul_12_1549,midd,
distractor,oka,stim/oka.wav,1,21,71,34,,,space,1.83436322212,,,002,djv,59.8913352344,prodShadow,2015_Jul_12_1549,midd,
target,beke,stim/beke.wav,1,22,72,4,,,space,1.85093808174,,,002,djv,59.8913352344,prodShadow,2015_Jul_12_1549,midd,
target,poko,stim/poko.wav,1,23,73,39,,,space,1.75027799606,,,002,djv,59.8913352344,prodShadow,2015_Jul_12_1549,midd,
target,kaka,stim/kaka.wav,1,24,74,28,,,space,1.75053691864,,,002,djv,59.8913352344,prodShadow,2015_Jul_12_1549,midd,
target,doko,stim/doko.wav,1,25,75,16,,,space,1.75135111809,,,002,djv,59.8913352344,prodShadow,2015_Jul_12_1549,midd,
target,geke,stim/geke.wav,1,26,76,22,,,space,1.65201592445,,,002,djv,59.8913352344,prodShadow,2015_Jul_12_1549,midd,
target,toko,stim/toko.wav,1,27,77,47,,,space,1.73426508904,,,002,djv,59.8913352344,prodShadow,2015_Jul_12_1549,midd,
target,goko,stim/goko.wav,1,28,78,24,,,space,1.50107097626,,,002,djv,59.8913352344,prodShadow,2015_Jul_12_1549,midd,
target,kiki,stim/kiki.wav,1,29,79,30,,,space,1.48469400406,,,002,djv,59.8913352344,prodShadow,2015_Jul_12_1549,midd,
pname,bala,stim/bala.wav,1,30,80,3,,,space,1.58408808708,,,002,djv,59.8913352344,prodShadow,2015_Jul_12_1549,midd,
distractor,ita,stim/ita.wav,1,31,81,27,,,space,1.61768102646,,,002,djv,59.8913352344,prodShadow,2015_Jul_12_1549,midd,
pname,caca,stim/caca.wav,1,32,82,9,,,space,1.78384304047,,,002,djv,59.8913352344,prodShadow,2015_Jul_12_1549,midd,
pname,bola,stim/bola.wav,1,33,83,7,,,space,2.90088200569,,,002,djv,59.8913352344,prodShadow,2015_Jul_12_1549,midd,
distractor,oba,stim/oba.wav,1,34,84,33,,,space,2.01763892174,,,002,djv,59.8913352344,prodShadow,2015_Jul_12_1549,midd,
target,giki,stim/giki.wav,1,35,85,23,,,space,2.1337211132,,,002,djv,59.8913352344,prodShadow,2015_Jul_12_1549,midd,
pname,coco,stim/coco.wav,1,36,86,10,,,space,1.95078086853,,,002,djv,59.8913352344,prodShadow,2015_Jul_12_1549,midd,
target,taka,stim/taka.wav,1,37,87,43,,,space,1.78350710869,,,002,djv,59.8913352344,prodShadow,2015_Jul_12_1549,midd,
pname,gota,stim/gota.wav,1,38,88,25,,,space,1.98378801346,,,002,djv,59.8913352344,prodShadow,2015_Jul_12_1549,midd,
pname,taco,stim/taco.wav,1,39,89,42,,,space,1.86704206467,,,002,djv,59.8913352344,prodShadow,2015_Jul_12_1549,midd,
target,diki,stim/diki.wav,1,40,90,14,,,space,1.78415799141,,,002,djv,59.8913352344,prodShadow,2015_Jul_12_1549,midd,
distractor,epa,stim/epa.wav,1,41,91,19,,,space,1.80046892166,,,002,djv,59.8913352344,prodShadow,2015_Jul_12_1549,midd,
pname,dodo,stim/dodo.wav,1,42,92,15,,,space,1.88426494598,,,002,djv,59.8913352344,prodShadow,2015_Jul_12_1549,midd,
target,keke,stim/keke.wav,1,43,93,29,,,space,2.01780796051,,,002,djv,59.8913352344,prodShadow,2015_Jul_12_1549,midd,
target,boko,stim/boko.wav,1,44,94,6,,,space,2.01762795448,,,002,djv,59.8913352344,prodShadow,2015_Jul_12_1549,midd,
pname,gato,stim/gato.wav,1,45,95,21,,,space,1.95083808899,,,002,djv,59.8913352344,prodShadow,2015_Jul_12_1549,midd,
target,gaka,stim/gaka.wav,1,46,96,20,,,space,1.86751294136,,,002,djv,59.8913352344,prodShadow,2015_Jul_12_1549,midd,
target,peke,stim/peke.wav,1,47,97,37,,,space,1.46806907654,,,002,djv,59.8913352344,prodShadow,2015_Jul_12_1549,midd,
distractor,eda,stim/eda.wav,1,48,98,18,,,space,1.86770296097,,,002,djv,59.8913352344,prodShadow,2015_Jul_12_1549,midd,
distractor,apa,stim/apa.wav,1,49,99,1,,,space,1.76809215546,,,002,djv,59.8913352344,prodShadow,2015_Jul_12_1549,midd,
target,kiki,stim/kiki.wav,2,0,100,30,,,space,1.78428602219,,,002,djv,59.8913352344,prodShadow,2015_Jul_12_1549,midd,
distractor,eda,stim/eda.wav,2,1,101,18,,,space,1.74974703789,,,002,djv,59.8913352344,prodShadow,2015_Jul_12_1549,midd,
distractor,uta,stim/uta.wav,2,2,102,49,,,space,3.4179649353,,,002,djv,59.8913352344,prodShadow,2015_Jul_12_1549,midd,
pname,bala,stim/bala.wav,2,3,103,3,,,space,2.3187289238,,,002,djv,59.8913352344,prodShadow,2015_Jul_12_1549,midd,
pname,coco,stim/coco.wav,2,4,104,10,,,space,2.21790003777,,,002,djv,59.8913352344,prodShadow,2015_Jul_12_1549,midd,
target,piki,stim/piki.wav,2,5,105,38,,,space,2.00093197823,,,002,djv,59.8913352344,prodShadow,2015_Jul_12_1549,midd,
target,tiki,stim/tiki.wav,2,6,106,45,,,space,2.00230407715,,,002,djv,59.8913352344,prodShadow,2015_Jul_12_1549,midd,
pname,taco,stim/taco.wav,2,7,107,42,,,space,1.56844305992,,,002,djv,59.8913352344,prodShadow,2015_Jul_12_1549,midd,
pname,topo,stim/topo.wav,2,8,108,46,,,space,1.43436408043,,,002,djv,59.8913352344,prodShadow,2015_Jul_12_1549,midd,
distractor,epa,stim/epa.wav,2,9,109,19,,,space,1.53661799431,,,002,djv,59.8913352344,prodShadow,2015_Jul_12_1549,midd,
distractor,apa,stim/apa.wav,2,10,110,1,,,space,1.68315696716,,,002,djv,59.8913352344,prodShadow,2015_Jul_12_1549,midd,
pname,bola,stim/bola.wav,2,11,111,7,,,space,1.95061302185,,,002,djv,59.8913352344,prodShadow,2015_Jul_12_1549,midd,
target,boko,stim/boko.wav,2,12,112,6,,,space,2.04769992828,,,002,djv,59.8913352344,prodShadow,2015_Jul_12_1549,midd,
target,puku,stim/puku.wav,2,13,113,41,,,space,1.90282392502,,,002,djv,59.8913352344,prodShadow,2015_Jul_12_1549,midd,
target,gaka,stim/gaka.wav,2,14,114,20,,,space,1.95397305489,,,002,djv,59.8913352344,prodShadow,2015_Jul_12_1549,midd,
target,poko,stim/poko.wav,2,15,115,39,,,space,2.35384988785,,,002,djv,59.8913352344,prodShadow,2015_Jul_12_1549,midd,
target,duku,stim/duku.wav,2,16,116,17,,,space,2.05026602745,,,002,djv,59.8913352344,prodShadow,2015_Jul_12_1549,midd,
target,beke,stim/beke.wav,2,17,117,4,,,space,2.34757304192,,,002,djv,59.8913352344,prodShadow,2015_Jul_12_1549,midd,
target,peke,stim/peke.wav,2,18,118,37,,,space,1.91768598557,,,002,djv,59.8913352344,prodShadow,2015_Jul_12_1549,midd,
target,goko,stim/goko.wav,2,19,119,24,,,space,2.05272698402,,,002,djv,59.8913352344,prodShadow,2015_Jul_12_1549,midd,
distractor,ita,stim/ita.wav,2,20,120,27,,,space,2.0183699131,,,002,djv,59.8913352344,prodShadow,2015_Jul_12_1549,midd,
distractor,ada,stim/ada.wav,2,21,121,0,,,space,2.03240084648,,,002,djv,59.8913352344,prodShadow,2015_Jul_12_1549,midd,
pname,gato,stim/gato.wav,2,22,122,21,,,space,2.44793796539,,,002,djv,59.8913352344,prodShadow,2015_Jul_12_1549,midd,
target,teke,stim/teke.wav,2,23,123,44,,,space,1.83359599113,,,002,djv,59.8913352344,prodShadow,2015_Jul_12_1549,midd,
target,buku,stim/buku.wav,2,24,124,8,,,space,1.79767894745,,,002,djv,59.8913352344,prodShadow,2015_Jul_12_1549,midd,
pname,polo,stim/polo.wav,2,25,125,40,,,space,1.58484888077,,,002,djv,59.8913352344,prodShadow,2015_Jul_12_1549,midd,
pname,dado,stim/dado.wav,2,26,126,11,,,space,1.81767892838,,,002,djv,59.8913352344,prodShadow,2015_Jul_12_1549,midd,
pname,palo,stim/palo.wav,2,27,127,36,,,space,1.56752610207,,,002,djv,59.8913352344,prodShadow,2015_Jul_12_1549,midd,
distractor,oka,stim/oka.wav,2,28,128,34,,,space,1.68443989754,,,002,djv,59.8913352344,prodShadow,2015_Jul_12_1549,midd,
pname,dodo,stim/dodo.wav,2,29,129,15,,,space,2.33474516869,,,002,djv,59.8913352344,prodShadow,2015_Jul_12_1549,midd,
target,koko,stim/koko.wav,2,30,130,31,,,space,1.83311486244,,,002,djv,59.8913352344,prodShadow,2015_Jul_12_1549,midd,
target,taka,stim/taka.wav,2,31,131,43,,,space,1.85168600082,,,002,djv,59.8913352344,prodShadow,2015_Jul_12_1549,midd,
target,guku,stim/guku.wav,2,32,132,26,,,space,1.76929783821,,,002,djv,59.8913352344,prodShadow,2015_Jul_12_1549,midd,
target,paka,stim/paka.wav,2,33,133,35,,,space,1.7504940033,,,002,djv,59.8913352344,prodShadow,2015_Jul_12_1549,midd,
target,keke,stim/keke.wav,2,34,134,29,,,space,1.71819400787,,,002,djv,59.8913352344,prodShadow,2015_Jul_12_1549,midd,
target,geke,stim/geke.wav,2,35,135,22,,,space,2.31772899628,,,002,djv,59.8913352344,prodShadow,2015_Jul_12_1549,midd,
pname,gota,stim/gota.wav,2,36,136,25,,,space,2.20143294334,,,002,djv,59.8913352344,prodShadow,2015_Jul_12_1549,midd,
target,kaka,stim/kaka.wav,2,37,137,28,,,space,2.46719193459,,,002,djv,59.8913352344,prodShadow,2015_Jul_12_1549,midd,
distractor,oba,stim/oba.wav,2,38,138,33,,,space,2.05048489571,,,002,djv,59.8913352344,prodShadow,2015_Jul_12_1549,midd,
pname,caca,stim/caca.wav,2,39,139,9,,,space,1.9673910141,,,002,djv,59.8913352344,prodShadow,2015_Jul_12_1549,midd,
target,baka,stim/baka.wav,2,40,140,2,,,space,2.03454399109,,,002,djv,59.8913352344,prodShadow,2015_Jul_12_1549,midd,
target,deke,stim/deke.wav,2,41,141,13,,,space,2.00135588646,,,002,djv,59.8913352344,prodShadow,2015_Jul_12_1549,midd,
target,kuku,stim/kuku.wav,2,42,142,32,,,space,1.88389182091,,,002,djv,59.8913352344,prodShadow,2015_Jul_12_1549,midd,
target,tuku,stim/tuku.wav,2,43,143,48,,,space,1.51753902435,,,002,djv,59.8913352344,prodShadow,2015_Jul_12_1549,midd,
target,daka,stim/daka.wav,2,44,144,12,,,space,1.66681098938,,,002,djv,59.8913352344,prodShadow,2015_Jul_12_1549,midd,
target,biki,stim/biki.wav,2,45,145,5,,,space,4.33391499519,,,002,djv,59.8913352344,prodShadow,2015_Jul_12_1549,midd,
target,doko,stim/doko.wav,2,46,146,16,,,space,2.06771993637,,,002,djv,59.8913352344,prodShadow,2015_Jul_12_1549,midd,
target,giki,stim/giki.wav,2,47,147,23,,,space,1.85134506226,,,002,djv,59.8913352344,prodShadow,2015_Jul_12_1549,midd,
target,diki,stim/diki.wav,2,48,148,14,,,space,2.20032215118,,,002,djv,59.8913352344,prodShadow,2015_Jul_12_1549,midd,
target,toko,stim/toko.wav,2,49,149,47,,,space,2.24968290329,,,002,djv,59.8913352344,prodShadow,2015_Jul_12_1549,midd,
,,,,,,,,,,,space,56.5746657848,002,djv,59.8913352344,prodShadow,2015_Jul_12_1549,midd,
