status,text,stim,trials.thisRepN,trials.thisTrialN,trials.thisN,trials.thisIndex,key_resp_3.keys,key_resp_3.rt,key_resp_2.keys,key_resp_2.rt,key_resp_4.keys,key_resp_4.rt,session,participant,frameRate,expName,date,condition,
,,,,,,,space,2.65084195137,,,,,005,jal,60.004949978,prodShadow,2015_Aug_02_1326,midd,
target,tuku,stim/tuku.wav,0,0,0,48,,,space,1.51782488823,,,005,jal,60.004949978,prodShadow,2015_Aug_02_1326,midd,
target,keke,stim/keke.wav,0,1,1,29,,,space,1.21746301651,,,005,jal,60.004949978,prodShadow,2015_Aug_02_1326,midd,
pname,taco,stim/taco.wav,0,2,2,42,,,space,1.10035181046,,,005,jal,60.004949978,prodShadow,2015_Aug_02_1326,midd,
target,kuku,stim/kuku.wav,0,3,3,32,,,space,1.00051283836,,,005,jal,60.004949978,prodShadow,2015_Aug_02_1326,midd,
target,gaka,stim/gaka.wav,0,4,4,20,,,space,1.41714096069,,,005,jal,60.004949978,prodShadow,2015_Aug_02_1326,midd,
distractor,epa,stim/epa.wav,0,5,5,19,,,space,1.25069499016,,,005,jal,60.004949978,prodShadow,2015_Aug_02_1326,midd,
target,deke,stim/deke.wav,0,6,6,13,,,space,1.36717200279,,,005,jal,60.004949978,prodShadow,2015_Aug_02_1326,midd,
target,kaka,stim/kaka.wav,0,7,7,28,,,space,1.25094509125,,,005,jal,60.004949978,prodShadow,2015_Aug_02_1326,midd,
target,tiki,stim/tiki.wav,0,8,8,45,,,space,1.31795692444,,,005,jal,60.004949978,prodShadow,2015_Aug_02_1326,midd,
pname,topo,stim/topo.wav,0,9,9,46,,,space,0.91738986969,,,005,jal,60.004949978,prodShadow,2015_Aug_02_1326,midd,
pname,dado,stim/dado.wav,0,10,10,11,,,space,1.08380198479,,,005,jal,60.004949978,prodShadow,2015_Aug_02_1326,midd,
target,guku,stim/guku.wav,0,11,11,26,,,space,1.28458309174,,,005,jal,60.004949978,prodShadow,2015_Aug_02_1326,midd,
target,taka,stim/taka.wav,0,12,12,43,,,space,1.23409199715,,,005,jal,60.004949978,prodShadow,2015_Aug_02_1326,midd,
distractor,ita,stim/ita.wav,0,13,13,27,,,space,1.18407511711,,,005,jal,60.004949978,prodShadow,2015_Aug_02_1326,midd,
distractor,oka,stim/oka.wav,0,14,14,34,,,space,1.3509221077,,,005,jal,60.004949978,prodShadow,2015_Aug_02_1326,midd,
target,daka,stim/daka.wav,0,15,15,12,,,space,1.25055003166,,,005,jal,60.004949978,prodShadow,2015_Aug_02_1326,midd,
target,goko,stim/goko.wav,0,16,16,24,,,space,1.13342189789,,,005,jal,60.004949978,prodShadow,2015_Aug_02_1326,midd,
target,toko,stim/toko.wav,0,17,17,47,,,space,0.950620889664,,,005,jal,60.004949978,prodShadow,2015_Aug_02_1326,midd,
target,teke,stim/teke.wav,0,18,18,44,,,space,1.05056905746,,,005,jal,60.004949978,prodShadow,2015_Aug_02_1326,midd,
pname,caca,stim/caca.wav,0,19,19,9,,,space,1.01735186577,,,005,jal,60.004949978,prodShadow,2015_Aug_02_1326,midd,
target,biki,stim/biki.wav,0,20,20,5,,,space,1.2342171669,,,005,jal,60.004949978,prodShadow,2015_Aug_02_1326,midd,
distractor,oba,stim/oba.wav,0,21,21,33,,,space,1.03417396545,,,005,jal,60.004949978,prodShadow,2015_Aug_02_1326,midd,
pname,gato,stim/gato.wav,0,22,22,21,,,space,1.23398995399,,,005,jal,60.004949978,prodShadow,2015_Aug_02_1326,midd,
distractor,eda,stim/eda.wav,0,23,23,18,,,space,1.23397994041,,,005,jal,60.004949978,prodShadow,2015_Aug_02_1326,midd,
target,paka,stim/paka.wav,0,24,24,35,,,space,1.30094790459,,,005,jal,60.004949978,prodShadow,2015_Aug_02_1326,midd,
pname,bala,stim/bala.wav,0,25,25,3,,,space,1.20072817802,,,005,jal,60.004949978,prodShadow,2015_Aug_02_1326,midd,
target,doko,stim/doko.wav,0,26,26,16,,,space,1.2673637867,,,005,jal,60.004949978,prodShadow,2015_Aug_02_1326,midd,
distractor,ada,stim/ada.wav,0,27,27,0,,,space,1.23429703712,,,005,jal,60.004949978,prodShadow,2015_Aug_02_1326,midd,
target,geke,stim/geke.wav,0,28,28,22,,,space,1.31704592705,,,005,jal,60.004949978,prodShadow,2015_Aug_02_1326,midd,
target,baka,stim/baka.wav,0,29,29,2,,,space,1.23424386978,,,005,jal,60.004949978,prodShadow,2015_Aug_02_1326,midd,
target,buku,stim/buku.wav,0,30,30,8,,,space,1.1166779995,,,005,jal,60.004949978,prodShadow,2015_Aug_02_1326,midd,
target,boko,stim/boko.wav,0,31,31,6,,,space,1.4512090683,,,005,jal,60.004949978,prodShadow,2015_Aug_02_1326,midd,
pname,polo,stim/polo.wav,0,32,32,40,,,space,1.00086283684,,,005,jal,60.004949978,prodShadow,2015_Aug_02_1326,midd,
target,giki,stim/giki.wav,0,33,33,23,,,space,1.26750898361,,,005,jal,60.004949978,prodShadow,2015_Aug_02_1326,midd,
target,duku,stim/duku.wav,0,34,34,17,,,space,1.4344367981,,,005,jal,60.004949978,prodShadow,2015_Aug_02_1326,midd,
target,puku,stim/puku.wav,0,35,35,41,,,space,1.20063304901,,,005,jal,60.004949978,prodShadow,2015_Aug_02_1326,midd,
target,piki,stim/piki.wav,0,36,36,38,,,space,1.20064902306,,,005,jal,60.004949978,prodShadow,2015_Aug_02_1326,midd,
target,beke,stim/beke.wav,0,37,37,4,,,space,1.50084686279,,,005,jal,60.004949978,prodShadow,2015_Aug_02_1326,midd,
pname,coco,stim/coco.wav,0,38,38,10,,,space,1.20059084892,,,005,jal,60.004949978,prodShadow,2015_Aug_02_1326,midd,
target,diki,stim/diki.wav,0,39,39,14,,,space,1.18434381485,,,005,jal,60.004949978,prodShadow,2015_Aug_02_1326,midd,
target,peke,stim/peke.wav,0,40,40,37,,,space,0.934637069702,,,005,jal,60.004949978,prodShadow,2015_Aug_02_1326,midd,
pname,gota,stim/gota.wav,0,41,41,25,,,space,1.15103411674,,,005,jal,60.004949978,prodShadow,2015_Aug_02_1326,midd,
pname,bola,stim/bola.wav,0,42,42,7,,,space,1.31772089005,,,005,jal,60.004949978,prodShadow,2015_Aug_02_1326,midd,
distractor,apa,stim/apa.wav,0,43,43,1,,,space,1.01741504669,,,005,jal,60.004949978,prodShadow,2015_Aug_02_1326,midd,
pname,dodo,stim/dodo.wav,0,44,44,15,,,space,1.18402504921,,,005,jal,60.004949978,prodShadow,2015_Aug_02_1326,midd,
target,kiki,stim/kiki.wav,0,45,45,30,,,space,1.18370294571,,,005,jal,60.004949978,prodShadow,2015_Aug_02_1326,midd,
distractor,uta,stim/uta.wav,0,46,46,49,,,space,1.38387918472,,,005,jal,60.004949978,prodShadow,2015_Aug_02_1326,midd,
pname,palo,stim/palo.wav,0,47,47,36,,,space,1.16745400429,,,005,jal,60.004949978,prodShadow,2015_Aug_02_1326,midd,
target,koko,stim/koko.wav,0,48,48,31,,,space,1.13405394554,,,005,jal,60.004949978,prodShadow,2015_Aug_02_1326,midd,
target,poko,stim/poko.wav,0,49,49,39,,,space,0.9842710495,,,005,jal,60.004949978,prodShadow,2015_Aug_02_1326,midd,
pname,caca,stim/caca.wav,1,0,50,9,,,space,1.16709494591,,,005,jal,60.004949978,prodShadow,2015_Aug_02_1326,midd,
distractor,apa,stim/apa.wav,1,1,51,1,,,space,0.900608062744,,,005,jal,60.004949978,prodShadow,2015_Aug_02_1326,midd,
target,peke,stim/peke.wav,1,2,52,37,,,space,0.950366020203,,,005,jal,60.004949978,prodShadow,2015_Aug_02_1326,midd,
target,poko,stim/poko.wav,1,3,53,39,,,space,0.817370176315,,,005,jal,60.004949978,prodShadow,2015_Aug_02_1326,midd,
target,boko,stim/boko.wav,1,4,54,6,,,space,0.967336893082,,,005,jal,60.004949978,prodShadow,2015_Aug_02_1326,midd,
target,baka,stim/baka.wav,1,5,55,2,,,space,0.983956813812,,,005,jal,60.004949978,prodShadow,2015_Aug_02_1326,midd,
target,gaka,stim/gaka.wav,1,6,56,20,,,space,1.11750602722,,,005,jal,60.004949978,prodShadow,2015_Aug_02_1326,midd,
target,teke,stim/teke.wav,1,7,57,44,,,space,0.851181983948,,,005,jal,60.004949978,prodShadow,2015_Aug_02_1326,midd,
target,diki,stim/diki.wav,1,8,58,14,,,space,0.866986989975,,,005,jal,60.004949978,prodShadow,2015_Aug_02_1326,midd,
target,buku,stim/buku.wav,1,9,59,8,,,space,0.767509937286,,,005,jal,60.004949978,prodShadow,2015_Aug_02_1326,midd,
target,paka,stim/paka.wav,1,10,60,35,,,space,0.767471075058,,,005,jal,60.004949978,prodShadow,2015_Aug_02_1326,midd,
target,taka,stim/taka.wav,1,11,61,43,,,space,0.933882951736,,,005,jal,60.004949978,prodShadow,2015_Aug_02_1326,midd,
pname,gato,stim/gato.wav,1,12,62,21,,,space,1.21706914902,,,005,jal,60.004949978,prodShadow,2015_Aug_02_1326,midd,
pname,dodo,stim/dodo.wav,1,13,63,15,,,space,1.10058498383,,,005,jal,60.004949978,prodShadow,2015_Aug_02_1326,midd,
pname,bola,stim/bola.wav,1,14,64,7,,,space,1.16742801666,,,005,jal,60.004949978,prodShadow,2015_Aug_02_1326,midd,
target,biki,stim/biki.wav,1,15,65,5,,,space,1.26746988297,,,005,jal,60.004949978,prodShadow,2015_Aug_02_1326,midd,
target,guku,stim/guku.wav,1,16,66,26,,,space,0.883876085281,,,005,jal,60.004949978,prodShadow,2015_Aug_02_1326,midd,
distractor,epa,stim/epa.wav,1,17,67,19,,,space,0.734084129333,,,005,jal,60.004949978,prodShadow,2015_Aug_02_1326,midd,
distractor,oka,stim/oka.wav,1,18,68,34,,,space,0.783700942993,,,005,jal,60.004949978,prodShadow,2015_Aug_02_1326,midd,
pname,polo,stim/polo.wav,1,19,69,40,,,space,0.300660133362,,,005,jal,60.004949978,prodShadow,2015_Aug_02_1326,midd,
distractor,oba,stim/oba.wav,1,20,70,33,,,space,1.00056004524,,,005,jal,60.004949978,prodShadow,2015_Aug_02_1326,midd,
target,beke,stim/beke.wav,1,21,71,4,,,space,1.06738305092,,,005,jal,60.004949978,prodShadow,2015_Aug_02_1326,midd,
target,doko,stim/doko.wav,1,22,72,16,,,space,1.01758003235,,,005,jal,60.004949978,prodShadow,2015_Aug_02_1326,midd,
distractor,uta,stim/uta.wav,1,23,73,49,,,space,0.783709049225,,,005,jal,60.004949978,prodShadow,2015_Aug_02_1326,midd,
pname,palo,stim/palo.wav,1,24,74,36,,,space,0.683876991272,,,005,jal,60.004949978,prodShadow,2015_Aug_02_1326,midd,
target,toko,stim/toko.wav,1,25,75,47,,,space,0.850652933121,,,005,jal,60.004949978,prodShadow,2015_Aug_02_1326,midd,
target,kaka,stim/kaka.wav,1,26,76,28,,,space,0.783895969391,,,005,jal,60.004949978,prodShadow,2015_Aug_02_1326,midd,
target,koko,stim/koko.wav,1,27,77,31,,,space,0.667078018188,,,005,jal,60.004949978,prodShadow,2015_Aug_02_1326,midd,
target,deke,stim/deke.wav,1,28,78,13,,,space,1.10107493401,,,005,jal,60.004949978,prodShadow,2015_Aug_02_1326,midd,
target,goko,stim/goko.wav,1,29,79,24,,,space,1.01724290848,,,005,jal,60.004949978,prodShadow,2015_Aug_02_1326,midd,
pname,gota,stim/gota.wav,1,30,80,25,,,space,1.18398785591,,,005,jal,60.004949978,prodShadow,2015_Aug_02_1326,midd,
target,tuku,stim/tuku.wav,1,31,81,48,,,space,1.10090994835,,,005,jal,60.004949978,prodShadow,2015_Aug_02_1326,midd,
target,kiki,stim/kiki.wav,1,32,82,30,,,space,1.18418312073,,,005,jal,60.004949978,prodShadow,2015_Aug_02_1326,midd,
pname,topo,stim/topo.wav,1,33,83,46,,,space,0.733844041824,,,005,jal,60.004949978,prodShadow,2015_Aug_02_1326,midd,
target,duku,stim/duku.wav,1,34,84,17,,,space,0.850653886795,,,005,jal,60.004949978,prodShadow,2015_Aug_02_1326,midd,
target,piki,stim/piki.wav,1,35,85,38,,,space,0.817287921906,,,005,jal,60.004949978,prodShadow,2015_Aug_02_1326,midd,
pname,dado,stim/dado.wav,1,36,86,11,,,space,0.850755214691,,,005,jal,60.004949978,prodShadow,2015_Aug_02_1326,midd,
target,tiki,stim/tiki.wav,1,37,87,45,,,space,0.583962202072,,,005,jal,60.004949978,prodShadow,2015_Aug_02_1326,midd,
distractor,ada,stim/ada.wav,1,38,88,0,,,space,0.433872938156,,,005,jal,60.004949978,prodShadow,2015_Aug_02_1326,midd,
target,puku,stim/puku.wav,1,39,89,41,,,space,1.21710705757,,,005,jal,60.004949978,prodShadow,2015_Aug_02_1326,midd,
target,daka,stim/daka.wav,1,40,90,12,,,space,1.01775383949,,,005,jal,60.004949978,prodShadow,2015_Aug_02_1326,midd,
pname,coco,stim/coco.wav,1,41,91,10,,,space,0.850723028183,,,005,jal,60.004949978,prodShadow,2015_Aug_02_1326,midd,
distractor,eda,stim/eda.wav,1,42,92,18,,,space,0.484112977982,,,005,jal,60.004949978,prodShadow,2015_Aug_02_1326,midd,
target,giki,stim/giki.wav,1,43,93,23,,,space,0.833941936493,,,005,jal,60.004949978,prodShadow,2015_Aug_02_1326,midd,
target,kuku,stim/kuku.wav,1,44,94,32,,,space,0.750768899918,,,005,jal,60.004949978,prodShadow,2015_Aug_02_1326,midd,
distractor,ita,stim/ita.wav,1,45,95,27,,,space,0.617237091064,,,005,jal,60.004949978,prodShadow,2015_Aug_02_1326,midd,
target,keke,stim/keke.wav,1,46,96,29,,,space,0.733838796616,,,005,jal,60.004949978,prodShadow,2015_Aug_02_1326,midd,
pname,bala,stim/bala.wav,1,47,97,3,,,space,0.800570964813,,,005,jal,60.004949978,prodShadow,2015_Aug_02_1326,midd,
pname,taco,stim/taco.wav,1,48,98,42,,,space,0.683887004852,,,005,jal,60.004949978,prodShadow,2015_Aug_02_1326,midd,
target,geke,stim/geke.wav,1,49,99,22,,,space,0.817584991455,,,005,jal,60.004949978,prodShadow,2015_Aug_02_1326,midd,
target,teke,stim/teke.wav,2,0,100,44,,,space,0.817178964615,,,005,jal,60.004949978,prodShadow,2015_Aug_02_1326,midd,
target,gaka,stim/gaka.wav,2,1,101,20,,,space,0.466647148132,,,005,jal,60.004949978,prodShadow,2015_Aug_02_1326,midd,
target,puku,stim/puku.wav,2,2,102,41,,,space,1.28443908691,,,005,jal,60.004949978,prodShadow,2015_Aug_02_1326,midd,
pname,dodo,stim/dodo.wav,2,3,103,15,,,space,1.06708693504,,,005,jal,60.004949978,prodShadow,2015_Aug_02_1326,midd,
target,kuku,stim/kuku.wav,2,4,104,32,,,space,1.08397507668,,,005,jal,60.004949978,prodShadow,2015_Aug_02_1326,midd,
target,guku,stim/guku.wav,2,5,105,26,,,space,1.08381795883,,,005,jal,60.004949978,prodShadow,2015_Aug_02_1326,midd,
target,baka,stim/baka.wav,2,6,106,2,,,space,0.967545986176,,,005,jal,60.004949978,prodShadow,2015_Aug_02_1326,midd,
distractor,uta,stim/uta.wav,2,7,107,49,,,space,0.517461061478,,,005,jal,60.004949978,prodShadow,2015_Aug_02_1326,midd,
target,giki,stim/giki.wav,2,8,108,23,,,space,0.833822011948,,,005,jal,60.004949978,prodShadow,2015_Aug_02_1326,midd,
target,tuku,stim/tuku.wav,2,9,109,48,,,space,0.81751203537,,,005,jal,60.004949978,prodShadow,2015_Aug_02_1326,midd,
distractor,oba,stim/oba.wav,2,10,110,33,,,space,0.900652885437,,,005,jal,60.004949978,prodShadow,2015_Aug_02_1326,midd,
target,tiki,stim/tiki.wav,2,11,111,45,,,space,0.701143026352,,,005,jal,60.004949978,prodShadow,2015_Aug_02_1326,midd,
target,kaka,stim/kaka.wav,2,12,112,28,,,space,0.667237043381,,,005,jal,60.004949978,prodShadow,2015_Aug_02_1326,midd,
target,biki,stim/biki.wav,2,13,113,5,,,space,0.950649023056,,,005,jal,60.004949978,prodShadow,2015_Aug_02_1326,midd,
distractor,oka,stim/oka.wav,2,14,114,34,,,space,0.867449998856,,,005,jal,60.004949978,prodShadow,2015_Aug_02_1326,midd,
pname,bala,stim/bala.wav,2,15,115,3,,,space,0.901016950607,,,005,jal,60.004949978,prodShadow,2015_Aug_02_1326,midd,
target,deke,stim/deke.wav,2,16,116,13,,,space,0.967313051224,,,005,jal,60.004949978,prodShadow,2015_Aug_02_1326,midd,
distractor,eda,stim/eda.wav,2,17,117,18,,,space,0.717400074005,,,005,jal,60.004949978,prodShadow,2015_Aug_02_1326,midd,
target,buku,stim/buku.wav,2,18,118,8,,,space,0.683886051178,,,005,jal,60.004949978,prodShadow,2015_Aug_02_1326,midd,
pname,bola,stim/bola.wav,2,19,119,7,,,space,0.750262975693,,,005,jal,60.004949978,prodShadow,2015_Aug_02_1326,midd,
target,koko,stim/koko.wav,2,20,120,31,,,space,0.617727041245,,,005,jal,60.004949978,prodShadow,2015_Aug_02_1326,midd,
target,kiki,stim/kiki.wav,2,21,121,30,,,space,0.783903837204,,,005,jal,60.004949978,prodShadow,2015_Aug_02_1326,midd,
target,toko,stim/toko.wav,2,22,122,47,,,space,0.78416800499,,,005,jal,60.004949978,prodShadow,2015_Aug_02_1326,midd,
target,duku,stim/duku.wav,2,23,123,17,,,space,1.18381500244,,,005,jal,60.004949978,prodShadow,2015_Aug_02_1326,midd,
target,goko,stim/goko.wav,2,24,124,24,,,space,0.967228889465,,,005,jal,60.004949978,prodShadow,2015_Aug_02_1326,midd,
pname,topo,stim/topo.wav,2,25,125,46,,,space,0.933832883835,,,005,jal,60.004949978,prodShadow,2015_Aug_02_1326,midd,
distractor,apa,stim/apa.wav,2,26,126,1,,,space,0.767447948456,,,005,jal,60.004949978,prodShadow,2015_Aug_02_1326,midd,
pname,coco,stim/coco.wav,2,27,127,10,,,space,0.884037971497,,,005,jal,60.004949978,prodShadow,2015_Aug_02_1326,midd,
target,paka,stim/paka.wav,2,28,128,35,,,space,0.666841030121,,,005,jal,60.004949978,prodShadow,2015_Aug_02_1326,midd,
distractor,epa,stim/epa.wav,2,29,129,19,,,space,0.533791065216,,,005,jal,60.004949978,prodShadow,2015_Aug_02_1326,midd,
target,keke,stim/keke.wav,2,30,130,29,,,space,0.650350093842,,,005,jal,60.004949978,prodShadow,2015_Aug_02_1326,midd,
target,poko,stim/poko.wav,2,31,131,39,,,space,0.667271137238,,,005,jal,60.004949978,prodShadow,2015_Aug_02_1326,midd,
target,geke,stim/geke.wav,2,32,132,22,,,space,0.75089097023,,,005,jal,60.004949978,prodShadow,2015_Aug_02_1326,midd,
target,taka,stim/taka.wav,2,33,133,43,,,space,0.817259073257,,,005,jal,60.004949978,prodShadow,2015_Aug_02_1326,midd,
pname,gota,stim/gota.wav,2,34,134,25,,,space,0.733915805817,,,005,jal,60.004949978,prodShadow,2015_Aug_02_1326,midd,
target,piki,stim/piki.wav,2,35,135,38,,,space,0.650566101074,,,005,jal,60.004949978,prodShadow,2015_Aug_02_1326,midd,
target,boko,stim/boko.wav,2,36,136,6,,,space,1.00084018707,,,005,jal,60.004949978,prodShadow,2015_Aug_02_1326,midd,
pname,palo,stim/palo.wav,2,37,137,36,,,space,0.766925096512,,,005,jal,60.004949978,prodShadow,2015_Aug_02_1326,midd,
pname,taco,stim/taco.wav,2,38,138,42,,,space,0.8337059021,,,005,jal,60.004949978,prodShadow,2015_Aug_02_1326,midd,
pname,polo,stim/polo.wav,2,39,139,40,,,space,0.834350824356,,,005,jal,60.004949978,prodShadow,2015_Aug_02_1326,midd,
target,doko,stim/doko.wav,2,40,140,16,,,space,0.783719062805,,,005,jal,60.004949978,prodShadow,2015_Aug_02_1326,midd,
pname,gato,stim/gato.wav,2,41,141,21,,,space,1.1007270813,,,005,jal,60.004949978,prodShadow,2015_Aug_02_1326,midd,
target,peke,stim/peke.wav,2,42,142,37,,,space,0.700570821762,,,005,jal,60.004949978,prodShadow,2015_Aug_02_1326,midd,
target,daka,stim/daka.wav,2,43,143,12,,,space,0.91760802269,,,005,jal,60.004949978,prodShadow,2015_Aug_02_1326,midd,
target,beke,stim/beke.wav,2,44,144,4,,,space,1.26721715927,,,005,jal,60.004949978,prodShadow,2015_Aug_02_1326,midd,
distractor,ita,stim/ita.wav,2,45,145,27,,,space,0.833842039108,,,005,jal,60.004949978,prodShadow,2015_Aug_02_1326,midd,
pname,dado,stim/dado.wav,2,46,146,11,,,space,0.850614786148,,,005,jal,60.004949978,prodShadow,2015_Aug_02_1326,midd,
distractor,ada,stim/ada.wav,2,47,147,0,,,space,0.767544984818,,,005,jal,60.004949978,prodShadow,2015_Aug_02_1326,midd,
pname,caca,stim/caca.wav,2,48,148,9,,,space,0.91755604744,,,005,jal,60.004949978,prodShadow,2015_Aug_02_1326,midd,
target,diki,stim/diki.wav,2,49,149,14,,,space,0.650603055954,,,005,jal,60.004949978,prodShadow,2015_Aug_02_1326,midd,
,,,,,,,,,,,space,21.8859779835,005,jal,60.004949978,prodShadow,2015_Aug_02_1326,midd,
