status,stim,trials.thisRepN,trials.thisTrialN,trials.thisN,trials.thisIndex,key_resp_2.keys,key_resp_2.rt,session,participant,frameRate,expName,date,condition,
distractor,stim/manzana.png,0,0,0,4,space,1.08094000816,001,stacybi,60.1210647853,prodShadow,2015_Dec_10_1414,tuc,
target,stim/dodo.png,0,1,1,13,space,2.1668150425,001,stacybi,60.1210647853,prodShadow,2015_Dec_10_1414,tuc,
target,stim/caca.png,0,2,2,10,space,0.613990068436,001,stacybi,60.1210647853,prodShadow,2015_Dec_10_1414,tuc,
target,stim/taco.png,0,3,3,18,space,0.783739089966,001,stacybi,60.1210647853,prodShadow,2015_Dec_10_1414,tuc,
distractor,stim/sol.png,0,4,4,1,space,0.917191028595,001,stacybi,60.1210647853,prodShadow,2015_Dec_10_1414,tuc,
distractor,stim/silla.png,0,5,5,6,space,0.600437879562,001,stacybi,60.1210647853,prodShadow,2015_Dec_10_1414,tuc,
target,stim/topo.png,0,6,6,19,space,1.58408880234,001,stacybi,60.1210647853,prodShadow,2015_Dec_10_1414,tuc,
target,stim/gato.png,0,7,7,14,space,2.31690597534,001,stacybi,60.1210647853,prodShadow,2015_Dec_10_1414,tuc,
distractor,stim/sombrero.png,0,8,8,0,space,2.14754319191,001,stacybi,60.1210647853,prodShadow,2015_Dec_10_1414,tuc,
target,stim/bola.png,0,9,9,9,space,0.832238912582,001,stacybi,60.1210647853,prodShadow,2015_Dec_10_1414,tuc,
target,stim/gota.png,0,10,10,15,space,0.850536108017,001,stacybi,60.1210647853,prodShadow,2015_Dec_10_1414,tuc,
distractor,stim/lapiz.png,0,11,11,3,space,0.800323009491,001,stacybi,60.1210647853,prodShadow,2015_Dec_10_1414,tuc,
distractor,stim/arbol.png,0,12,12,2,space,1.6373758316,001,stacybi,60.1210647853,prodShadow,2015_Dec_10_1414,tuc,
distractor,stim/libro.png,0,13,13,5,space,2.11691403389,001,stacybi,60.1210647853,prodShadow,2015_Dec_10_1414,tuc,
target,stim/dado.png,0,14,14,12,space,1.08378195763,001,stacybi,60.1210647853,prodShadow,2015_Dec_10_1414,tuc,
target,stim/palo.png,0,15,15,16,space,1.0534658432,001,stacybi,60.1210647853,prodShadow,2015_Dec_10_1414,tuc,
target,stim/coco.png,0,16,16,11,space,0.933332920074,001,stacybi,60.1210647853,prodShadow,2015_Dec_10_1414,tuc,
distractor,stim/mochila.png,0,17,17,7,space,0.967533111572,001,stacybi,60.1210647853,prodShadow,2015_Dec_10_1414,tuc,
target,stim/bala.png,0,18,18,8,space,1.06741595268,001,stacybi,60.1210647853,prodShadow,2015_Dec_10_1414,tuc,
target,stim/polo.png,0,19,19,17,space,0.854116916656,001,stacybi,60.1210647853,prodShadow,2015_Dec_10_1414,tuc,
target,stim/dodo.png,1,0,20,13,space,1.9169318676,001,stacybi,60.1210647853,prodShadow,2015_Dec_10_1414,tuc,
distractor,stim/arbol.png,1,1,21,2,space,0.817352056503,001,stacybi,60.1210647853,prodShadow,2015_Dec_10_1414,tuc,
target,stim/coco.png,1,2,22,11,space,0.716965913773,001,stacybi,60.1210647853,prodShadow,2015_Dec_10_1414,tuc,
target,stim/topo.png,1,3,23,19,space,3.22010302544,001,stacybi,60.1210647853,prodShadow,2015_Dec_10_1414,tuc,
distractor,stim/sombrero.png,1,4,24,0,space,0.950524091721,001,stacybi,60.1210647853,prodShadow,2015_Dec_10_1414,tuc,
target,stim/gota.png,1,5,25,15,space,0.60060095787,001,stacybi,60.1210647853,prodShadow,2015_Dec_10_1414,tuc,
distractor,stim/silla.png,1,6,26,6,space,0.847599029541,001,stacybi,60.1210647853,prodShadow,2015_Dec_10_1414,tuc,
target,stim/palo.png,1,7,27,16,space,0.720348119736,001,stacybi,60.1210647853,prodShadow,2015_Dec_10_1414,tuc,
distractor,stim/manzana.png,1,8,28,4,space,0.783843994141,001,stacybi,60.1210647853,prodShadow,2015_Dec_10_1414,tuc,
target,stim/taco.png,1,9,29,18,space,1.90027284622,001,stacybi,60.1210647853,prodShadow,2015_Dec_10_1414,tuc,
target,stim/bola.png,1,10,30,9,space,0.714366912842,001,stacybi,60.1210647853,prodShadow,2015_Dec_10_1414,tuc,
distractor,stim/sol.png,1,11,31,1,space,0.734167814255,001,stacybi,60.1210647853,prodShadow,2015_Dec_10_1414,tuc,
target,stim/gato.png,1,12,32,14,space,0.650687932968,001,stacybi,60.1210647853,prodShadow,2015_Dec_10_1414,tuc,
target,stim/polo.png,1,13,33,17,space,0.700554847717,001,stacybi,60.1210647853,prodShadow,2015_Dec_10_1414,tuc,
target,stim/caca.png,1,14,34,10,space,0.621235847473,001,stacybi,60.1210647853,prodShadow,2015_Dec_10_1414,tuc,
distractor,stim/mochila.png,1,15,35,7,space,0.867061853409,001,stacybi,60.1210647853,prodShadow,2015_Dec_10_1414,tuc,
distractor,stim/lapiz.png,1,16,36,3,space,0.537311077118,001,stacybi,60.1210647853,prodShadow,2015_Dec_10_1414,tuc,
target,stim/dado.png,1,17,37,12,space,1.1504881382,001,stacybi,60.1210647853,prodShadow,2015_Dec_10_1414,tuc,
target,stim/bala.png,1,18,38,8,space,0.816982984543,001,stacybi,60.1210647853,prodShadow,2015_Dec_10_1414,tuc,
distractor,stim/libro.png,1,19,39,5,space,1.36414885521,001,stacybi,60.1210647853,prodShadow,2015_Dec_10_1414,tuc,
target,stim/caca.png,2,0,40,10,space,1.05053400993,001,stacybi,60.1210647853,prodShadow,2015_Dec_10_1414,tuc,
distractor,stim/arbol.png,2,1,41,2,space,0.683772087097,001,stacybi,60.1210647853,prodShadow,2015_Dec_10_1414,tuc,
target,stim/dado.png,2,2,42,12,space,1.06727814674,001,stacybi,60.1210647853,prodShadow,2015_Dec_10_1414,tuc,
distractor,stim/manzana.png,2,3,43,4,space,0.99710893631,001,stacybi,60.1210647853,prodShadow,2015_Dec_10_1414,tuc,
target,stim/gota.png,2,4,44,15,space,0.65073800087,001,stacybi,60.1210647853,prodShadow,2015_Dec_10_1414,tuc,
distractor,stim/sol.png,2,5,45,1,space,0.634093046188,001,stacybi,60.1210647853,prodShadow,2015_Dec_10_1414,tuc,
distractor,stim/mochila.png,2,6,46,7,space,1.07053995132,001,stacybi,60.1210647853,prodShadow,2015_Dec_10_1414,tuc,
target,stim/coco.png,2,7,47,11,space,1.01704502106,001,stacybi,60.1210647853,prodShadow,2015_Dec_10_1414,tuc,
target,stim/topo.png,2,8,48,19,space,2.25046992302,001,stacybi,60.1210647853,prodShadow,2015_Dec_10_1414,tuc,
distractor,stim/lapiz.png,2,9,49,3,space,0.863408088684,001,stacybi,60.1210647853,prodShadow,2015_Dec_10_1414,tuc,
target,stim/bala.png,2,10,50,8,space,0.43025302887,001,stacybi,60.1210647853,prodShadow,2015_Dec_10_1414,tuc,
distractor,stim/silla.png,2,11,51,6,space,0.645498991013,001,stacybi,60.1210647853,prodShadow,2015_Dec_10_1414,tuc,
distractor,stim/sombrero.png,2,12,52,0,space,0.834496974945,001,stacybi,60.1210647853,prodShadow,2015_Dec_10_1414,tuc,
distractor,stim/libro.png,2,13,53,5,space,1.13039898872,001,stacybi,60.1210647853,prodShadow,2015_Dec_10_1414,tuc,
target,stim/bola.png,2,14,54,9,space,0.887659072876,001,stacybi,60.1210647853,prodShadow,2015_Dec_10_1414,tuc,
target,stim/polo.png,2,15,55,17,space,0.750604152679,001,stacybi,60.1210647853,prodShadow,2015_Dec_10_1414,tuc,
target,stim/gato.png,2,16,56,14,space,0.753812074661,001,stacybi,60.1210647853,prodShadow,2015_Dec_10_1414,tuc,
target,stim/palo.png,2,17,57,16,space,1.69778990746,001,stacybi,60.1210647853,prodShadow,2015_Dec_10_1414,tuc,
target,stim/dodo.png,2,18,58,13,space,1.45350193977,001,stacybi,60.1210647853,prodShadow,2015_Dec_10_1414,tuc,
target,stim/taco.png,2,19,59,18,space,0.446772098541,001,stacybi,60.1210647853,prodShadow,2015_Dec_10_1414,tuc,
