status,text,stim,trials.thisRepN,trials.thisTrialN,trials.thisN,trials.thisIndex,key_resp_3.keys,key_resp_3.rt,key_resp_2.keys,key_resp_2.rt,key_resp_4.keys,key_resp_4.rt,session,participant,frameRate,expName,date,condition,
,,,,,,,space,0.950791835785,,,,,003,ems,60.0478171609,prodShadow,2015_Jul_19_1524,midd,
pname,bala,stim/bala.wav,0,0,0,3,,,space,1.78453803062,,,003,ems,60.0478171609,prodShadow,2015_Jul_19_1524,midd,
pname,dado,stim/dado.wav,0,1,1,11,,,space,1.40093493462,,,003,ems,60.0478171609,prodShadow,2015_Jul_19_1524,midd,
pname,caca,stim/caca.wav,0,2,2,9,,,space,1.10022091866,,,003,ems,60.0478171609,prodShadow,2015_Jul_19_1524,midd,
target,tiki,stim/tiki.wav,0,3,3,45,,,space,1.06719589233,,,003,ems,60.0478171609,prodShadow,2015_Jul_19_1524,midd,
target,geke,stim/geke.wav,0,4,4,22,,,space,1.13412594795,,,003,ems,60.0478171609,prodShadow,2015_Jul_19_1524,midd,
target,beke,stim/beke.wav,0,5,5,4,,,space,1.23441791534,,,003,ems,60.0478171609,prodShadow,2015_Jul_19_1524,midd,
target,taka,stim/taka.wav,0,6,6,43,,,space,1.16733813286,,,003,ems,60.0478171609,prodShadow,2015_Jul_19_1524,midd,
target,tuku,stim/tuku.wav,0,7,7,48,,,space,1.16776990891,,,003,ems,60.0478171609,prodShadow,2015_Jul_19_1524,midd,
pname,dodo,stim/dodo.wav,0,8,8,15,,,space,1.13434886932,,,003,ems,60.0478171609,prodShadow,2015_Jul_19_1524,midd,
target,gaka,stim/gaka.wav,0,9,9,20,,,space,1.26735711098,,,003,ems,60.0478171609,prodShadow,2015_Jul_19_1524,midd,
distractor,ita,stim/ita.wav,0,10,10,27,,,space,1.00053691864,,,003,ems,60.0478171609,prodShadow,2015_Jul_19_1524,midd,
target,giki,stim/giki.wav,0,11,11,23,,,space,0.900447845459,,,003,ems,60.0478171609,prodShadow,2015_Jul_19_1524,midd,
target,keke,stim/keke.wav,0,12,12,29,,,space,1.10064291954,,,003,ems,60.0478171609,prodShadow,2015_Jul_19_1524,midd,
pname,bola,stim/bola.wav,0,13,13,7,,,space,1.16751503944,,,003,ems,60.0478171609,prodShadow,2015_Jul_19_1524,midd,
distractor,uta,stim/uta.wav,0,14,14,49,,,space,1.33391094208,,,003,ems,60.0478171609,prodShadow,2015_Jul_19_1524,midd,
target,peke,stim/peke.wav,0,15,15,37,,,space,1.10074114799,,,003,ems,60.0478171609,prodShadow,2015_Jul_19_1524,midd,
target,kaka,stim/kaka.wav,0,16,16,28,,,space,1.06799888611,,,003,ems,60.0478171609,prodShadow,2015_Jul_19_1524,midd,
distractor,eda,stim/eda.wav,0,17,17,18,,,space,0.967586994171,,,003,ems,60.0478171609,prodShadow,2015_Jul_19_1524,midd,
pname,topo,stim/topo.wav,0,18,18,46,,,space,1.13365101814,,,003,ems,60.0478171609,prodShadow,2015_Jul_19_1524,midd,
target,deke,stim/deke.wav,0,19,19,13,,,space,1.25085711479,,,003,ems,60.0478171609,prodShadow,2015_Jul_19_1524,midd,
distractor,epa,stim/epa.wav,0,20,20,19,,,space,0.834170103073,,,003,ems,60.0478171609,prodShadow,2015_Jul_19_1524,midd,
target,guku,stim/guku.wav,0,21,21,26,,,space,1.56714820862,,,003,ems,60.0478171609,prodShadow,2015_Jul_19_1524,midd,
target,diki,stim/diki.wav,0,22,22,14,,,space,1.11754393578,,,003,ems,60.0478171609,prodShadow,2015_Jul_19_1524,midd,
target,buku,stim/buku.wav,0,23,23,8,,,space,1.00074911118,,,003,ems,60.0478171609,prodShadow,2015_Jul_19_1524,midd,
target,toko,stim/toko.wav,0,24,24,47,,,space,0.950922012329,,,003,ems,60.0478171609,prodShadow,2015_Jul_19_1524,midd,
pname,taco,stim/taco.wav,0,25,25,42,,,space,1.0172059536,,,003,ems,60.0478171609,prodShadow,2015_Jul_19_1524,midd,
distractor,ada,stim/ada.wav,0,26,26,0,,,space,1.03416395187,,,003,ems,60.0478171609,prodShadow,2015_Jul_19_1524,midd,
target,koko,stim/koko.wav,0,27,27,31,,,space,1.0507080555,,,003,ems,60.0478171609,prodShadow,2015_Jul_19_1524,midd,
target,doko,stim/doko.wav,0,28,28,16,,,space,1.21762394905,,,003,ems,60.0478171609,prodShadow,2015_Jul_19_1524,midd,
target,duku,stim/duku.wav,0,29,29,17,,,space,1.45105695724,,,003,ems,60.0478171609,prodShadow,2015_Jul_19_1524,midd,
target,biki,stim/biki.wav,0,30,30,5,,,space,1.30107808113,,,003,ems,60.0478171609,prodShadow,2015_Jul_19_1524,midd,
target,kuku,stim/kuku.wav,0,31,31,32,,,space,1.01733398438,,,003,ems,60.0478171609,prodShadow,2015_Jul_19_1524,midd,
target,daka,stim/daka.wav,0,32,32,12,,,space,1.08437204361,,,003,ems,60.0478171609,prodShadow,2015_Jul_19_1524,midd,
pname,gota,stim/gota.wav,0,33,33,25,,,space,1.16754412651,,,003,ems,60.0478171609,prodShadow,2015_Jul_19_1524,midd,
target,teke,stim/teke.wav,0,34,34,44,,,space,1.06726002693,,,003,ems,60.0478171609,prodShadow,2015_Jul_19_1524,midd,
pname,polo,stim/polo.wav,0,35,35,40,,,space,1.03421592712,,,003,ems,60.0478171609,prodShadow,2015_Jul_19_1524,midd,
distractor,apa,stim/apa.wav,0,36,36,1,,,space,0.934317111969,,,003,ems,60.0478171609,prodShadow,2015_Jul_19_1524,midd,
target,kiki,stim/kiki.wav,0,37,37,30,,,space,0.984278917313,,,003,ems,60.0478171609,prodShadow,2015_Jul_19_1524,midd,
target,goko,stim/goko.wav,0,38,38,24,,,space,1.0838971138,,,003,ems,60.0478171609,prodShadow,2015_Jul_19_1524,midd,
distractor,oba,stim/oba.wav,0,39,39,33,,,space,1.03427600861,,,003,ems,60.0478171609,prodShadow,2015_Jul_19_1524,midd,
target,piki,stim/piki.wav,0,40,40,38,,,space,0.966922044754,,,003,ems,60.0478171609,prodShadow,2015_Jul_19_1524,midd,
target,puku,stim/puku.wav,0,41,41,41,,,space,1.0170648098,,,003,ems,60.0478171609,prodShadow,2015_Jul_19_1524,midd,
target,boko,stim/boko.wav,0,42,42,6,,,space,1.06728601456,,,003,ems,60.0478171609,prodShadow,2015_Jul_19_1524,midd,
distractor,oka,stim/oka.wav,0,43,43,34,,,space,1.05176711082,,,003,ems,60.0478171609,prodShadow,2015_Jul_19_1524,midd,
target,poko,stim/poko.wav,0,44,44,39,,,space,1.06720519066,,,003,ems,60.0478171609,prodShadow,2015_Jul_19_1524,midd,
target,baka,stim/baka.wav,0,45,45,2,,,space,1.00043582916,,,003,ems,60.0478171609,prodShadow,2015_Jul_19_1524,midd,
pname,gato,stim/gato.wav,0,46,46,21,,,space,1.26710987091,,,003,ems,60.0478171609,prodShadow,2015_Jul_19_1524,midd,
pname,palo,stim/palo.wav,0,47,47,36,,,space,1.05038690567,,,003,ems,60.0478171609,prodShadow,2015_Jul_19_1524,midd,
target,paka,stim/paka.wav,0,48,48,35,,,space,0.833789110184,,,003,ems,60.0478171609,prodShadow,2015_Jul_19_1524,midd,
pname,coco,stim/coco.wav,0,49,49,10,,,space,1.16793394089,,,003,ems,60.0478171609,prodShadow,2015_Jul_19_1524,midd,
target,giki,stim/giki.wav,1,0,50,23,,,space,1.19991016388,,,003,ems,60.0478171609,prodShadow,2015_Jul_19_1524,midd,
target,biki,stim/biki.wav,1,1,51,5,,,space,1.45029306412,,,003,ems,60.0478171609,prodShadow,2015_Jul_19_1524,midd,
target,peke,stim/peke.wav,1,2,52,37,,,space,0.900727033615,,,003,ems,60.0478171609,prodShadow,2015_Jul_19_1524,midd,
target,buku,stim/buku.wav,1,3,53,8,,,space,1.18379211426,,,003,ems,60.0478171609,prodShadow,2015_Jul_19_1524,midd,
target,poko,stim/poko.wav,1,4,54,39,,,space,1.03387284279,,,003,ems,60.0478171609,prodShadow,2015_Jul_19_1524,midd,
target,diki,stim/diki.wav,1,5,55,14,,,space,1.09961605072,,,003,ems,60.0478171609,prodShadow,2015_Jul_19_1524,midd,
target,taka,stim/taka.wav,1,6,56,43,,,space,0.95158290863,,,003,ems,60.0478171609,prodShadow,2015_Jul_19_1524,midd,
target,daka,stim/daka.wav,1,7,57,12,,,space,1.08319091797,,,003,ems,60.0478171609,prodShadow,2015_Jul_19_1524,midd,
target,baka,stim/baka.wav,1,8,58,2,,,space,1.05103111267,,,003,ems,60.0478171609,prodShadow,2015_Jul_19_1524,midd,
pname,dado,stim/dado.wav,1,9,59,11,,,space,1.03439807892,,,003,ems,60.0478171609,prodShadow,2015_Jul_19_1524,midd,
target,teke,stim/teke.wav,1,10,60,44,,,space,0.850434064865,,,003,ems,60.0478171609,prodShadow,2015_Jul_19_1524,midd,
pname,dodo,stim/dodo.wav,1,11,61,15,,,space,1.1009349823,,,003,ems,60.0478171609,prodShadow,2015_Jul_19_1524,midd,
target,keke,stim/keke.wav,1,12,62,29,,,space,0.950392007828,,,003,ems,60.0478171609,prodShadow,2015_Jul_19_1524,midd,
distractor,ada,stim/ada.wav,1,13,63,0,,,space,1.06739091873,,,003,ems,60.0478171609,prodShadow,2015_Jul_19_1524,midd,
target,boko,stim/boko.wav,1,14,64,6,,,space,1.15038490295,,,003,ems,60.0478171609,prodShadow,2015_Jul_19_1524,midd,
target,piki,stim/piki.wav,1,15,65,38,,,space,0.833909034729,,,003,ems,60.0478171609,prodShadow,2015_Jul_19_1524,midd,
distractor,ita,stim/ita.wav,1,16,66,27,,,space,0.984966039658,,,003,ems,60.0478171609,prodShadow,2015_Jul_19_1524,midd,
target,duku,stim/duku.wav,1,17,67,17,,,space,1.15121388435,,,003,ems,60.0478171609,prodShadow,2015_Jul_19_1524,midd,
pname,bala,stim/bala.wav,1,18,68,3,,,space,1.11624193192,,,003,ems,60.0478171609,prodShadow,2015_Jul_19_1524,midd,
distractor,oka,stim/oka.wav,1,19,69,34,,,space,1.26794600487,,,003,ems,60.0478171609,prodShadow,2015_Jul_19_1524,midd,
target,doko,stim/doko.wav,1,20,70,16,,,space,1.20047187805,,,003,ems,60.0478171609,prodShadow,2015_Jul_19_1524,midd,
target,beke,stim/beke.wav,1,21,71,4,,,space,1.28411102295,,,003,ems,60.0478171609,prodShadow,2015_Jul_19_1524,midd,
target,koko,stim/koko.wav,1,22,72,31,,,space,1.08513212204,,,003,ems,60.0478171609,prodShadow,2015_Jul_19_1524,midd,
pname,caca,stim/caca.wav,1,23,73,9,,,space,1.00010108948,,,003,ems,60.0478171609,prodShadow,2015_Jul_19_1524,midd,
target,tiki,stim/tiki.wav,1,24,74,45,,,space,0.950194835663,,,003,ems,60.0478171609,prodShadow,2015_Jul_19_1524,midd,
target,guku,stim/guku.wav,1,25,75,26,,,space,1.23371291161,,,003,ems,60.0478171609,prodShadow,2015_Jul_19_1524,midd,
target,goko,stim/goko.wav,1,26,76,24,,,space,1.25081586838,,,003,ems,60.0478171609,prodShadow,2015_Jul_19_1524,midd,
target,kuku,stim/kuku.wav,1,27,77,32,,,space,0.933393955231,,,003,ems,60.0478171609,prodShadow,2015_Jul_19_1524,midd,
pname,bola,stim/bola.wav,1,28,78,7,,,space,1.15136790276,,,003,ems,60.0478171609,prodShadow,2015_Jul_19_1524,midd,
pname,polo,stim/polo.wav,1,29,79,40,,,space,1.26638197899,,,003,ems,60.0478171609,prodShadow,2015_Jul_19_1524,midd,
pname,gato,stim/gato.wav,1,30,80,21,,,space,1.35146212578,,,003,ems,60.0478171609,prodShadow,2015_Jul_19_1524,midd,
target,tuku,stim/tuku.wav,1,31,81,48,,,space,1.25098204613,,,003,ems,60.0478171609,prodShadow,2015_Jul_19_1524,midd,
pname,palo,stim/palo.wav,1,32,82,36,,,space,1.11774206161,,,003,ems,60.0478171609,prodShadow,2015_Jul_19_1524,midd,
target,toko,stim/toko.wav,1,33,83,47,,,space,1.03385090828,,,003,ems,60.0478171609,prodShadow,2015_Jul_19_1524,midd,
distractor,oba,stim/oba.wav,1,34,84,33,,,space,1.03480815887,,,003,ems,60.0478171609,prodShadow,2015_Jul_19_1524,midd,
pname,topo,stim/topo.wav,1,35,85,46,,,space,0.900171995163,,,003,ems,60.0478171609,prodShadow,2015_Jul_19_1524,midd,
distractor,eda,stim/eda.wav,1,36,86,18,,,space,0.934201955795,,,003,ems,60.0478171609,prodShadow,2015_Jul_19_1524,midd,
target,geke,stim/geke.wav,1,37,87,22,,,space,1.05020689964,,,003,ems,60.0478171609,prodShadow,2015_Jul_19_1524,midd,
target,paka,stim/paka.wav,1,38,88,35,,,space,0.901225090027,,,003,ems,60.0478171609,prodShadow,2015_Jul_19_1524,midd,
pname,gota,stim/gota.wav,1,39,89,25,,,space,1.0679898262,,,003,ems,60.0478171609,prodShadow,2015_Jul_19_1524,midd,
distractor,epa,stim/epa.wav,1,40,90,19,,,space,0.834953069687,,,003,ems,60.0478171609,prodShadow,2015_Jul_19_1524,midd,
distractor,uta,stim/uta.wav,1,41,91,49,,,space,0.884205818176,,,003,ems,60.0478171609,prodShadow,2015_Jul_19_1524,midd,
distractor,apa,stim/apa.wav,1,42,92,1,,,space,0.967983007431,,,003,ems,60.0478171609,prodShadow,2015_Jul_19_1524,midd,
pname,coco,stim/coco.wav,1,43,93,10,,,space,0.983659029007,,,003,ems,60.0478171609,prodShadow,2015_Jul_19_1524,midd,
target,kiki,stim/kiki.wav,1,44,94,30,,,space,1.00143504143,,,003,ems,60.0478171609,prodShadow,2015_Jul_19_1524,midd,
target,puku,stim/puku.wav,1,45,95,41,,,space,0.917587995529,,,003,ems,60.0478171609,prodShadow,2015_Jul_19_1524,midd,
pname,taco,stim/taco.wav,1,46,96,42,,,space,1.16791605949,,,003,ems,60.0478171609,prodShadow,2015_Jul_19_1524,midd,
target,gaka,stim/gaka.wav,1,47,97,20,,,space,1.00070500374,,,003,ems,60.0478171609,prodShadow,2015_Jul_19_1524,midd,
target,kaka,stim/kaka.wav,1,48,98,28,,,space,0.884371995926,,,003,ems,60.0478171609,prodShadow,2015_Jul_19_1524,midd,
target,deke,stim/deke.wav,1,49,99,13,,,space,1.15068697929,,,003,ems,60.0478171609,prodShadow,2015_Jul_19_1524,midd,
distractor,eda,stim/eda.wav,2,0,100,18,,,space,0.867354869843,,,003,ems,60.0478171609,prodShadow,2015_Jul_19_1524,midd,
target,tiki,stim/tiki.wav,2,1,101,45,,,space,0.984222888947,,,003,ems,60.0478171609,prodShadow,2015_Jul_19_1524,midd,
target,poko,stim/poko.wav,2,2,102,39,,,space,1.08327412605,,,003,ems,60.0478171609,prodShadow,2015_Jul_19_1524,midd,
distractor,apa,stim/apa.wav,2,3,103,1,,,space,1.2345700264,,,003,ems,60.0478171609,prodShadow,2015_Jul_19_1524,midd,
distractor,uta,stim/uta.wav,2,4,104,49,,,space,1.40134501457,,,003,ems,60.0478171609,prodShadow,2015_Jul_19_1524,midd,
target,toko,stim/toko.wav,2,5,105,47,,,space,1.16758012772,,,003,ems,60.0478171609,prodShadow,2015_Jul_19_1524,midd,
distractor,epa,stim/epa.wav,2,6,106,19,,,space,1.15028190613,,,003,ems,60.0478171609,prodShadow,2015_Jul_19_1524,midd,
pname,palo,stim/palo.wav,2,7,107,36,,,space,1.18443894386,,,003,ems,60.0478171609,prodShadow,2015_Jul_19_1524,midd,
target,boko,stim/boko.wav,2,8,108,6,,,space,1.10122609138,,,003,ems,60.0478171609,prodShadow,2015_Jul_19_1524,midd,
pname,dado,stim/dado.wav,2,9,109,11,,,space,1.06636691093,,,003,ems,60.0478171609,prodShadow,2015_Jul_19_1524,midd,
distractor,ada,stim/ada.wav,2,10,110,0,,,space,1.06747603416,,,003,ems,60.0478171609,prodShadow,2015_Jul_19_1524,midd,
target,kuku,stim/kuku.wav,2,11,111,32,,,space,0.86777305603,,,003,ems,60.0478171609,prodShadow,2015_Jul_19_1524,midd,
target,piki,stim/piki.wav,2,12,112,38,,,space,0.984069108963,,,003,ems,60.0478171609,prodShadow,2015_Jul_19_1524,midd,
target,tuku,stim/tuku.wav,2,13,113,48,,,space,1.0505130291,,,003,ems,60.0478171609,prodShadow,2015_Jul_19_1524,midd,
target,biki,stim/biki.wav,2,14,114,5,,,space,1.21761417389,,,003,ems,60.0478171609,prodShadow,2015_Jul_19_1524,midd,
target,deke,stim/deke.wav,2,15,115,13,,,space,1.03441810608,,,003,ems,60.0478171609,prodShadow,2015_Jul_19_1524,midd,
pname,caca,stim/caca.wav,2,16,116,9,,,space,1.01772809029,,,003,ems,60.0478171609,prodShadow,2015_Jul_19_1524,midd,
target,peke,stim/peke.wav,2,17,117,37,,,space,0.917592048645,,,003,ems,60.0478171609,prodShadow,2015_Jul_19_1524,midd,
distractor,oka,stim/oka.wav,2,18,118,34,,,space,1.16764211655,,,003,ems,60.0478171609,prodShadow,2015_Jul_19_1524,midd,
pname,polo,stim/polo.wav,2,19,119,40,,,space,1.15092492104,,,003,ems,60.0478171609,prodShadow,2015_Jul_19_1524,midd,
target,kaka,stim/kaka.wav,2,20,120,28,,,space,1.10121798515,,,003,ems,60.0478171609,prodShadow,2015_Jul_19_1524,midd,
target,teke,stim/teke.wav,2,21,121,44,,,space,1.05055809021,,,003,ems,60.0478171609,prodShadow,2015_Jul_19_1524,midd,
target,paka,stim/paka.wav,2,22,122,35,,,space,1.08384585381,,,003,ems,60.0478171609,prodShadow,2015_Jul_19_1524,midd,
target,duku,stim/duku.wav,2,23,123,17,,,space,1.13473105431,,,003,ems,60.0478171609,prodShadow,2015_Jul_19_1524,midd,
target,gaka,stim/gaka.wav,2,24,124,20,,,space,1.03368806839,,,003,ems,60.0478171609,prodShadow,2015_Jul_19_1524,midd,
target,goko,stim/goko.wav,2,25,125,24,,,space,1.2008869648,,,003,ems,60.0478171609,prodShadow,2015_Jul_19_1524,midd,
distractor,oba,stim/oba.wav,2,26,126,33,,,space,1.28439903259,,,003,ems,60.0478171609,prodShadow,2015_Jul_19_1524,midd,
pname,topo,stim/topo.wav,2,27,127,46,,,space,0.967529058456,,,003,ems,60.0478171609,prodShadow,2015_Jul_19_1524,midd,
target,guku,stim/guku.wav,2,28,128,26,,,space,1.08292889595,,,003,ems,60.0478171609,prodShadow,2015_Jul_19_1524,midd,
target,doko,stim/doko.wav,2,29,129,16,,,space,1.03357195854,,,003,ems,60.0478171609,prodShadow,2015_Jul_19_1524,midd,
target,diki,stim/diki.wav,2,30,130,14,,,space,0.967314004898,,,003,ems,60.0478171609,prodShadow,2015_Jul_19_1524,midd,
target,beke,stim/beke.wav,2,31,131,4,,,space,1.18315196037,,,003,ems,60.0478171609,prodShadow,2015_Jul_19_1524,midd,
pname,bala,stim/bala.wav,2,32,132,3,,,space,0.981986999512,,,003,ems,60.0478171609,prodShadow,2015_Jul_19_1524,midd,
distractor,ita,stim/ita.wav,2,33,133,27,,,space,1.05082201958,,,003,ems,60.0478171609,prodShadow,2015_Jul_19_1524,midd,
pname,bola,stim/bola.wav,2,34,134,7,,,space,1.10335612297,,,003,ems,60.0478171609,prodShadow,2015_Jul_19_1524,midd,
target,baka,stim/baka.wav,2,35,135,2,,,space,1.08358502388,,,003,ems,60.0478171609,prodShadow,2015_Jul_19_1524,midd,
target,geke,stim/geke.wav,2,36,136,22,,,space,1.06741499901,,,003,ems,60.0478171609,prodShadow,2015_Jul_19_1524,midd,
pname,coco,stim/coco.wav,2,37,137,10,,,space,1.21758103371,,,003,ems,60.0478171609,prodShadow,2015_Jul_19_1524,midd,
pname,dodo,stim/dodo.wav,2,38,138,15,,,space,1.18729090691,,,003,ems,60.0478171609,prodShadow,2015_Jul_19_1524,midd,
target,buku,stim/buku.wav,2,39,139,8,,,space,1.11616587639,,,003,ems,60.0478171609,prodShadow,2015_Jul_19_1524,midd,
target,keke,stim/keke.wav,2,40,140,29,,,space,0.920318126678,,,003,ems,60.0478171609,prodShadow,2015_Jul_19_1524,midd,
pname,gato,stim/gato.wav,2,41,141,21,,,space,1.34943294525,,,003,ems,60.0478171609,prodShadow,2015_Jul_19_1524,midd,
target,koko,stim/koko.wav,2,42,142,31,,,space,1.13421487808,,,003,ems,60.0478171609,prodShadow,2015_Jul_19_1524,midd,
pname,taco,stim/taco.wav,2,43,143,42,,,space,1.05073595047,,,003,ems,60.0478171609,prodShadow,2015_Jul_19_1524,midd,
target,kiki,stim/kiki.wav,2,44,144,30,,,space,0.966442108154,,,003,ems,60.0478171609,prodShadow,2015_Jul_19_1524,midd,
pname,gota,stim/gota.wav,2,45,145,25,,,space,1.18710398674,,,003,ems,60.0478171609,prodShadow,2015_Jul_19_1524,midd,
target,daka,stim/daka.wav,2,46,146,12,,,space,1.08422589302,,,003,ems,60.0478171609,prodShadow,2015_Jul_19_1524,midd,
target,taka,stim/taka.wav,2,47,147,43,,,space,1.00033593178,,,003,ems,60.0478171609,prodShadow,2015_Jul_19_1524,midd,
target,puku,stim/puku.wav,2,48,148,41,,,space,1.09861707687,,,003,ems,60.0478171609,prodShadow,2015_Jul_19_1524,midd,
target,giki,stim/giki.wav,2,49,149,23,,,space,0.953083992004,,,003,ems,60.0478171609,prodShadow,2015_Jul_19_1524,midd,
,,,,,,,,,,,space,4.91596889496,003,ems,60.0478171609,prodShadow,2015_Jul_19_1524,midd,
