status,text,stim,trials.thisRepN,trials.thisTrialN,trials.thisN,trials.thisIndex,key_resp_3.keys,key_resp_3.rt,key_resp_2.keys,key_resp_2.rt,session,participant,frameRate,expName,date,condition,
,,,,,,,space,6.53420615196,,,001,magdabi,59.8981776222,prodShadow,2016_Jan_25_1202,tuc,
pname,dado,stim/dado.wav,0,0,0,11,,,space,2.81745910645,001,magdabi,59.8981776222,prodShadow,2016_Jan_25_1202,tuc,
pname,taco,stim/taco.wav,0,1,1,42,,,space,1.35080599785,001,magdabi,59.8981776222,prodShadow,2016_Jan_25_1202,tuc,
target,buku,stim/buku.wav,0,2,2,8,,,space,1.75082206726,001,magdabi,59.8981776222,prodShadow,2016_Jan_25_1202,tuc,
distractor,apa,stim/apa.wav,0,3,3,1,,,space,1.66764998436,001,magdabi,59.8981776222,prodShadow,2016_Jan_25_1202,tuc,
target,diki,stim/diki.wav,0,4,4,14,,,space,1.53419709206,001,magdabi,59.8981776222,prodShadow,2016_Jan_25_1202,tuc,
target,biki,stim/biki.wav,0,5,5,5,,,space,1.21727895737,001,magdabi,59.8981776222,prodShadow,2016_Jan_25_1202,tuc,
pname,palo,stim/palo.wav,0,6,6,36,,,space,1.51743483543,001,magdabi,59.8981776222,prodShadow,2016_Jan_25_1202,tuc,
target,teke,stim/teke.wav,0,7,7,44,,,space,1.35089302063,001,magdabi,59.8981776222,prodShadow,2016_Jan_25_1202,tuc,
target,goko,stim/goko.wav,0,8,8,24,,,space,1.98426294327,001,magdabi,59.8981776222,prodShadow,2016_Jan_25_1202,tuc,
target,deke,stim/deke.wav,0,9,9,13,,,space,1.41738009453,001,magdabi,59.8981776222,prodShadow,2016_Jan_25_1202,tuc,
distractor,oba,stim/oba.wav,0,10,10,33,,,space,1.20417785645,001,magdabi,59.8981776222,prodShadow,2016_Jan_25_1202,tuc,
target,peke,stim/peke.wav,0,11,11,37,,,space,1.23395991325,001,magdabi,59.8981776222,prodShadow,2016_Jan_25_1202,tuc,
distractor,ada,stim/ada.wav,0,12,12,0,,,space,1.38402485847,001,magdabi,59.8981776222,prodShadow,2016_Jan_25_1202,tuc,
target,beke,stim/beke.wav,0,13,13,4,,,space,2.00074791908,001,magdabi,59.8981776222,prodShadow,2016_Jan_25_1202,tuc,
pname,dodo,stim/dodo.wav,0,14,14,15,,,space,2.28247189522,001,magdabi,59.8981776222,prodShadow,2016_Jan_25_1202,tuc,
target,piki,stim/piki.wav,0,15,15,38,,,space,1.71741294861,001,magdabi,59.8981776222,prodShadow,2016_Jan_25_1202,tuc,
distractor,ita,stim/ita.wav,0,16,16,27,,,space,1.41760206223,001,magdabi,59.8981776222,prodShadow,2016_Jan_25_1202,tuc,
target,puku,stim/puku.wav,0,17,17,41,,,space,2.33080482483,001,magdabi,59.8981776222,prodShadow,2016_Jan_25_1202,tuc,
target,doko,stim/doko.wav,0,18,18,16,,,space,1.36940813065,001,magdabi,59.8981776222,prodShadow,2016_Jan_25_1202,tuc,
target,kiki,stim/kiki.wav,0,19,19,30,,,space,2.16726994514,001,magdabi,59.8981776222,prodShadow,2016_Jan_25_1202,tuc,
target,gaka,stim/gaka.wav,0,20,20,20,,,space,1.36712098122,001,magdabi,59.8981776222,prodShadow,2016_Jan_25_1202,tuc,
target,kuku,stim/kuku.wav,0,21,21,32,,,space,1.40086293221,001,magdabi,59.8981776222,prodShadow,2016_Jan_25_1202,tuc,
pname,coco,stim/coco.wav,0,22,22,10,,,space,0.904327869415,001,magdabi,59.8981776222,prodShadow,2016_Jan_25_1202,tuc,
target,tuku,stim/tuku.wav,0,23,23,48,,,space,1.42999196053,001,magdabi,59.8981776222,prodShadow,2016_Jan_25_1202,tuc,
target,geke,stim/geke.wav,0,24,24,22,,,space,1.56363892555,001,magdabi,59.8981776222,prodShadow,2016_Jan_25_1202,tuc,
target,tiki,stim/tiki.wav,0,25,25,45,,,space,1.8677520752,001,magdabi,59.8981776222,prodShadow,2016_Jan_25_1202,tuc,
pname,bola,stim/bola.wav,0,26,26,7,,,space,1.41747403145,001,magdabi,59.8981776222,prodShadow,2016_Jan_25_1202,tuc,
target,kaka,stim/kaka.wav,0,27,27,28,,,space,1.80104613304,001,magdabi,59.8981776222,prodShadow,2016_Jan_25_1202,tuc,
pname,polo,stim/polo.wav,0,28,28,40,,,space,1.55034708977,001,magdabi,59.8981776222,prodShadow,2016_Jan_25_1202,tuc,
target,taka,stim/taka.wav,0,29,29,43,,,space,0.970476865768,001,magdabi,59.8981776222,prodShadow,2016_Jan_25_1202,tuc,
distractor,uta,stim/uta.wav,0,30,30,49,,,space,1.20035600662,001,magdabi,59.8981776222,prodShadow,2016_Jan_25_1202,tuc,
target,baka,stim/baka.wav,0,31,31,2,,,space,1.1671769619,001,magdabi,59.8981776222,prodShadow,2016_Jan_25_1202,tuc,
target,toko,stim/toko.wav,0,32,32,47,,,space,1.41385912895,001,magdabi,59.8981776222,prodShadow,2016_Jan_25_1202,tuc,
distractor,eda,stim/eda.wav,0,33,33,18,,,space,2.53443002701,001,magdabi,59.8981776222,prodShadow,2016_Jan_25_1202,tuc,
target,duku,stim/duku.wav,0,34,34,17,,,space,1.23073196411,001,magdabi,59.8981776222,prodShadow,2016_Jan_25_1202,tuc,
target,giki,stim/giki.wav,0,35,35,23,,,space,1.50081300735,001,magdabi,59.8981776222,prodShadow,2016_Jan_25_1202,tuc,
target,koko,stim/koko.wav,0,36,36,31,,,space,1.60073018074,001,magdabi,59.8981776222,prodShadow,2016_Jan_25_1202,tuc,
target,boko,stim/boko.wav,0,37,37,6,,,space,0.867055892944,001,magdabi,59.8981776222,prodShadow,2016_Jan_25_1202,tuc,
target,poko,stim/poko.wav,0,38,38,39,,,space,0.880249023438,001,magdabi,59.8981776222,prodShadow,2016_Jan_25_1202,tuc,
target,guku,stim/guku.wav,0,39,39,26,,,space,0.917641878128,001,magdabi,59.8981776222,prodShadow,2016_Jan_25_1202,tuc,
pname,gota,stim/gota.wav,0,40,40,25,,,space,0.68382191658,001,magdabi,59.8981776222,prodShadow,2016_Jan_25_1202,tuc,
distractor,epa,stim/epa.wav,0,41,41,19,,,space,0.65075802803,001,magdabi,59.8981776222,prodShadow,2016_Jan_25_1202,tuc,
distractor,oka,stim/oka.wav,0,42,42,34,,,space,0.570919036865,001,magdabi,59.8981776222,prodShadow,2016_Jan_25_1202,tuc,
pname,topo,stim/topo.wav,0,43,43,46,,,space,0.950268983841,001,magdabi,59.8981776222,prodShadow,2016_Jan_25_1202,tuc,
pname,bala,stim/bala.wav,0,44,44,3,,,space,0.783468961716,001,magdabi,59.8981776222,prodShadow,2016_Jan_25_1202,tuc,
pname,caca,stim/caca.wav,0,45,45,9,,,space,1.1666059494,001,magdabi,59.8981776222,prodShadow,2016_Jan_25_1202,tuc,
target,daka,stim/daka.wav,0,46,46,12,,,space,0.783997058868,001,magdabi,59.8981776222,prodShadow,2016_Jan_25_1202,tuc,
pname,gato,stim/gato.wav,0,47,47,21,,,space,0.700788974762,001,magdabi,59.8981776222,prodShadow,2016_Jan_25_1202,tuc,
target,keke,stim/keke.wav,0,48,48,29,,,space,0.934113025665,001,magdabi,59.8981776222,prodShadow,2016_Jan_25_1202,tuc,
target,paka,stim/paka.wav,0,49,49,35,,,space,0.517239809036,001,magdabi,59.8981776222,prodShadow,2016_Jan_25_1202,tuc,
pname,caca,stim/caca.wav,1,0,50,9,,,space,1.50079703331,001,magdabi,59.8981776222,prodShadow,2016_Jan_25_1202,tuc,
distractor,oka,stim/oka.wav,1,1,51,34,,,space,0.617020130157,001,magdabi,59.8981776222,prodShadow,2016_Jan_25_1202,tuc,
pname,dodo,stim/dodo.wav,1,2,52,15,,,space,1.10429787636,001,magdabi,59.8981776222,prodShadow,2016_Jan_25_1202,tuc,
pname,taco,stim/taco.wav,1,3,53,42,,,space,0.79688501358,001,magdabi,59.8981776222,prodShadow,2016_Jan_25_1202,tuc,
target,doko,stim/doko.wav,1,4,54,16,,,space,0.950655937195,001,magdabi,59.8981776222,prodShadow,2016_Jan_25_1202,tuc,
distractor,apa,stim/apa.wav,1,5,55,1,,,space,0.783638000488,001,magdabi,59.8981776222,prodShadow,2016_Jan_25_1202,tuc,
target,kiki,stim/kiki.wav,1,6,56,30,,,space,2.00175595284,001,magdabi,59.8981776222,prodShadow,2016_Jan_25_1202,tuc,
target,boko,stim/boko.wav,1,7,57,6,,,space,1.23402690887,001,magdabi,59.8981776222,prodShadow,2016_Jan_25_1202,tuc,
pname,dado,stim/dado.wav,1,8,58,11,,,space,1.31744813919,001,magdabi,59.8981776222,prodShadow,2016_Jan_25_1202,tuc,
target,baka,stim/baka.wav,1,9,59,2,,,space,1.11721682549,001,magdabi,59.8981776222,prodShadow,2016_Jan_25_1202,tuc,
target,keke,stim/keke.wav,1,10,60,29,,,space,0.867470979691,001,magdabi,59.8981776222,prodShadow,2016_Jan_25_1202,tuc,
distractor,uta,stim/uta.wav,1,11,61,49,,,space,0.650516986847,001,magdabi,59.8981776222,prodShadow,2016_Jan_25_1202,tuc,
pname,bola,stim/bola.wav,1,12,62,7,,,space,0.737723827362,001,magdabi,59.8981776222,prodShadow,2016_Jan_25_1202,tuc,
target,diki,stim/diki.wav,1,13,63,14,,,space,0.920611858368,001,magdabi,59.8981776222,prodShadow,2016_Jan_25_1202,tuc,
target,tuku,stim/tuku.wav,1,14,64,48,,,space,0.800498008728,001,magdabi,59.8981776222,prodShadow,2016_Jan_25_1202,tuc,
target,peke,stim/peke.wav,1,15,65,37,,,space,0.867367982864,001,magdabi,59.8981776222,prodShadow,2016_Jan_25_1202,tuc,
distractor,eda,stim/eda.wav,1,16,66,18,,,space,0.820863008499,001,magdabi,59.8981776222,prodShadow,2016_Jan_25_1202,tuc,
distractor,ada,stim/ada.wav,1,17,67,0,,,space,1.01743793488,001,magdabi,59.8981776222,prodShadow,2016_Jan_25_1202,tuc,
target,tiki,stim/tiki.wav,1,18,68,45,,,space,0.733777046204,001,magdabi,59.8981776222,prodShadow,2016_Jan_25_1202,tuc,
target,gaka,stim/gaka.wav,1,19,69,20,,,space,0.883761882782,001,magdabi,59.8981776222,prodShadow,2016_Jan_25_1202,tuc,
target,toko,stim/toko.wav,1,20,70,47,,,space,0.683778047562,001,magdabi,59.8981776222,prodShadow,2016_Jan_25_1202,tuc,
target,beke,stim/beke.wav,1,21,71,4,,,space,0.634145021439,001,magdabi,59.8981776222,prodShadow,2016_Jan_25_1202,tuc,
target,duku,stim/duku.wav,1,22,72,17,,,space,0.780070066452,001,magdabi,59.8981776222,prodShadow,2016_Jan_25_1202,tuc,
pname,polo,stim/polo.wav,1,23,73,40,,,space,0.850686073303,001,magdabi,59.8981776222,prodShadow,2016_Jan_25_1202,tuc,
pname,topo,stim/topo.wav,1,24,74,46,,,space,1.08404397964,001,magdabi,59.8981776222,prodShadow,2016_Jan_25_1202,tuc,
distractor,ita,stim/ita.wav,1,25,75,27,,,space,0.500603914261,001,magdabi,59.8981776222,prodShadow,2016_Jan_25_1202,tuc,
target,daka,stim/daka.wav,1,26,76,12,,,space,0.904241800308,001,magdabi,59.8981776222,prodShadow,2016_Jan_25_1202,tuc,
pname,coco,stim/coco.wav,1,27,77,10,,,space,0.734102010727,001,magdabi,59.8981776222,prodShadow,2016_Jan_25_1202,tuc,
target,poko,stim/poko.wav,1,28,78,39,,,space,0.587574005127,001,magdabi,59.8981776222,prodShadow,2016_Jan_25_1202,tuc,
pname,gato,stim/gato.wav,1,29,79,21,,,space,0.767522096634,001,magdabi,59.8981776222,prodShadow,2016_Jan_25_1202,tuc,
target,kuku,stim/kuku.wav,1,30,80,32,,,space,0.633998155594,001,magdabi,59.8981776222,prodShadow,2016_Jan_25_1202,tuc,
target,kaka,stim/kaka.wav,1,31,81,28,,,space,0.800760030746,001,magdabi,59.8981776222,prodShadow,2016_Jan_25_1202,tuc,
distractor,oba,stim/oba.wav,1,32,82,33,,,space,0.717366933823,001,magdabi,59.8981776222,prodShadow,2016_Jan_25_1202,tuc,
target,koko,stim/koko.wav,1,33,83,31,,,space,0.770735025406,001,magdabi,59.8981776222,prodShadow,2016_Jan_25_1202,tuc,
pname,palo,stim/palo.wav,1,34,84,36,,,space,0.683824062347,001,magdabi,59.8981776222,prodShadow,2016_Jan_25_1202,tuc,
target,teke,stim/teke.wav,1,35,85,44,,,space,0.520606994629,001,magdabi,59.8981776222,prodShadow,2016_Jan_25_1202,tuc,
target,puku,stim/puku.wav,1,36,86,41,,,space,0.737499952316,001,magdabi,59.8981776222,prodShadow,2016_Jan_25_1202,tuc,
distractor,epa,stim/epa.wav,1,37,87,19,,,space,0.70068192482,001,magdabi,59.8981776222,prodShadow,2016_Jan_25_1202,tuc,
target,biki,stim/biki.wav,1,38,88,5,,,space,0.534038066864,001,magdabi,59.8981776222,prodShadow,2016_Jan_25_1202,tuc,
target,deke,stim/deke.wav,1,39,89,13,,,space,0.400874853134,001,magdabi,59.8981776222,prodShadow,2016_Jan_25_1202,tuc,
pname,bala,stim/bala.wav,1,40,90,3,,,space,0.567132949829,001,magdabi,59.8981776222,prodShadow,2016_Jan_25_1202,tuc,
target,paka,stim/paka.wav,1,41,91,35,,,space,0.417502880096,001,magdabi,59.8981776222,prodShadow,2016_Jan_25_1202,tuc,
target,taka,stim/taka.wav,1,42,92,43,,,space,0.800757169724,001,magdabi,59.8981776222,prodShadow,2016_Jan_25_1202,tuc,
pname,gota,stim/gota.wav,1,43,93,25,,,space,0.884079933167,001,magdabi,59.8981776222,prodShadow,2016_Jan_25_1202,tuc,
target,giki,stim/giki.wav,1,44,94,23,,,space,0.763644933701,001,magdabi,59.8981776222,prodShadow,2016_Jan_25_1202,tuc,
target,goko,stim/goko.wav,1,45,95,24,,,space,0.984102964401,001,magdabi,59.8981776222,prodShadow,2016_Jan_25_1202,tuc,
target,buku,stim/buku.wav,1,46,96,8,,,space,0.638520956039,001,magdabi,59.8981776222,prodShadow,2016_Jan_25_1202,tuc,
target,guku,stim/guku.wav,1,47,97,26,,,space,0.467277050018,001,magdabi,59.8981776222,prodShadow,2016_Jan_25_1202,tuc,
target,geke,stim/geke.wav,1,48,98,22,,,space,1.36736297607,001,magdabi,59.8981776222,prodShadow,2016_Jan_25_1202,tuc,
target,piki,stim/piki.wav,1,49,99,38,,,space,1.30054402351,001,magdabi,59.8981776222,prodShadow,2016_Jan_25_1202,tuc,
pname,gato,stim/gato.wav,2,0,100,21,,,space,1.26756811142,001,magdabi,59.8981776222,prodShadow,2016_Jan_25_1202,tuc,
pname,bola,stim/bola.wav,2,1,101,7,,,space,0.483897924423,001,magdabi,59.8981776222,prodShadow,2016_Jan_25_1202,tuc,
pname,palo,stim/palo.wav,2,2,102,36,,,space,1.05058193207,001,magdabi,59.8981776222,prodShadow,2016_Jan_25_1202,tuc,
target,kiki,stim/kiki.wav,2,3,103,30,,,space,0.717548131943,001,magdabi,59.8981776222,prodShadow,2016_Jan_25_1202,tuc,
target,diki,stim/diki.wav,2,4,104,14,,,space,0.680399894714,001,magdabi,59.8981776222,prodShadow,2016_Jan_25_1202,tuc,
pname,topo,stim/topo.wav,2,5,105,46,,,space,1.50073695183,001,magdabi,59.8981776222,prodShadow,2016_Jan_25_1202,tuc,
target,goko,stim/goko.wav,2,6,106,24,,,space,0.884027004242,001,magdabi,59.8981776222,prodShadow,2016_Jan_25_1202,tuc,
target,doko,stim/doko.wav,2,7,107,16,,,space,0.820765972137,001,magdabi,59.8981776222,prodShadow,2016_Jan_25_1202,tuc,
target,guku,stim/guku.wav,2,8,108,26,,,space,0.570463895798,001,magdabi,59.8981776222,prodShadow,2016_Jan_25_1202,tuc,
target,baka,stim/baka.wav,2,9,109,2,,,space,0.647168874741,001,magdabi,59.8981776222,prodShadow,2016_Jan_25_1202,tuc,
distractor,apa,stim/apa.wav,2,10,110,1,,,space,0.567545175552,001,magdabi,59.8981776222,prodShadow,2016_Jan_25_1202,tuc,
target,deke,stim/deke.wav,2,11,111,13,,,space,0.733990907669,001,magdabi,59.8981776222,prodShadow,2016_Jan_25_1202,tuc,
target,geke,stim/geke.wav,2,12,112,22,,,space,1.18425393105,001,magdabi,59.8981776222,prodShadow,2016_Jan_25_1202,tuc,
target,koko,stim/koko.wav,2,13,113,31,,,space,0.833530902863,001,magdabi,59.8981776222,prodShadow,2016_Jan_25_1202,tuc,
target,poko,stim/poko.wav,2,14,114,39,,,space,1.18381309509,001,magdabi,59.8981776222,prodShadow,2016_Jan_25_1202,tuc,
distractor,oba,stim/oba.wav,2,15,115,33,,,space,0.620864152908,001,magdabi,59.8981776222,prodShadow,2016_Jan_25_1202,tuc,
distractor,ita,stim/ita.wav,2,16,116,27,,,space,0.517161846161,001,magdabi,59.8981776222,prodShadow,2016_Jan_25_1202,tuc,
target,paka,stim/paka.wav,2,17,117,35,,,space,0.763589859009,001,magdabi,59.8981776222,prodShadow,2016_Jan_25_1202,tuc,
target,tiki,stim/tiki.wav,2,18,118,45,,,space,0.737525939941,001,magdabi,59.8981776222,prodShadow,2016_Jan_25_1202,tuc,
pname,caca,stim/caca.wav,2,19,119,9,,,space,0.900898933411,001,magdabi,59.8981776222,prodShadow,2016_Jan_25_1202,tuc,
target,beke,stim/beke.wav,2,20,120,4,,,space,0.53350520134,001,magdabi,59.8981776222,prodShadow,2016_Jan_25_1202,tuc,
target,keke,stim/keke.wav,2,21,121,29,,,space,0.884194135666,001,magdabi,59.8981776222,prodShadow,2016_Jan_25_1202,tuc,
target,taka,stim/taka.wav,2,22,122,43,,,space,0.767201185226,001,magdabi,59.8981776222,prodShadow,2016_Jan_25_1202,tuc,
target,piki,stim/piki.wav,2,23,123,38,,,space,0.91740489006,001,magdabi,59.8981776222,prodShadow,2016_Jan_25_1202,tuc,
distractor,epa,stim/epa.wav,2,24,124,19,,,space,0.637290000916,001,magdabi,59.8981776222,prodShadow,2016_Jan_25_1202,tuc,
target,kuku,stim/kuku.wav,2,25,125,32,,,space,1.05052280426,001,magdabi,59.8981776222,prodShadow,2016_Jan_25_1202,tuc,
distractor,eda,stim/eda.wav,2,26,126,18,,,space,0.650819063187,001,magdabi,59.8981776222,prodShadow,2016_Jan_25_1202,tuc,
target,tuku,stim/tuku.wav,2,27,127,48,,,space,0.716974020004,001,magdabi,59.8981776222,prodShadow,2016_Jan_25_1202,tuc,
target,teke,stim/teke.wav,2,28,128,44,,,space,0.967497110367,001,magdabi,59.8981776222,prodShadow,2016_Jan_25_1202,tuc,
target,puku,stim/puku.wav,2,29,129,41,,,space,0.717321157455,001,magdabi,59.8981776222,prodShadow,2016_Jan_25_1202,tuc,
target,gaka,stim/gaka.wav,2,30,130,20,,,space,1.08412790298,001,magdabi,59.8981776222,prodShadow,2016_Jan_25_1202,tuc,
distractor,uta,stim/uta.wav,2,31,131,49,,,space,1.38418793678,001,magdabi,59.8981776222,prodShadow,2016_Jan_25_1202,tuc,
pname,taco,stim/taco.wav,2,32,132,42,,,space,0.634142160416,001,magdabi,59.8981776222,prodShadow,2016_Jan_25_1202,tuc,
pname,dado,stim/dado.wav,2,33,133,11,,,space,0.817201852798,001,magdabi,59.8981776222,prodShadow,2016_Jan_25_1202,tuc,
target,kaka,stim/kaka.wav,2,34,134,28,,,space,0.684052944183,001,magdabi,59.8981776222,prodShadow,2016_Jan_25_1202,tuc,
target,giki,stim/giki.wav,2,35,135,23,,,space,1.0671749115,001,magdabi,59.8981776222,prodShadow,2016_Jan_25_1202,tuc,
target,daka,stim/daka.wav,2,36,136,12,,,space,1.75055789948,001,magdabi,59.8981776222,prodShadow,2016_Jan_25_1202,tuc,
target,boko,stim/boko.wav,2,37,137,6,,,space,0.717365980148,001,magdabi,59.8981776222,prodShadow,2016_Jan_25_1202,tuc,
distractor,ada,stim/ada.wav,2,38,138,0,,,space,0.63016295433,001,magdabi,59.8981776222,prodShadow,2016_Jan_25_1202,tuc,
distractor,oka,stim/oka.wav,2,39,139,34,,,space,0.667381048203,001,magdabi,59.8981776222,prodShadow,2016_Jan_25_1202,tuc,
target,buku,stim/buku.wav,2,40,140,8,,,space,0.934329032898,001,magdabi,59.8981776222,prodShadow,2016_Jan_25_1202,tuc,
target,toko,stim/toko.wav,2,41,141,47,,,space,0.433961868286,001,magdabi,59.8981776222,prodShadow,2016_Jan_25_1202,tuc,
pname,coco,stim/coco.wav,2,42,142,10,,,space,0.483549118042,001,magdabi,59.8981776222,prodShadow,2016_Jan_25_1202,tuc,
pname,gota,stim/gota.wav,2,43,143,25,,,space,0.534122943878,001,magdabi,59.8981776222,prodShadow,2016_Jan_25_1202,tuc,
pname,bala,stim/bala.wav,2,44,144,3,,,space,0.563704013824,001,magdabi,59.8981776222,prodShadow,2016_Jan_25_1202,tuc,
pname,dodo,stim/dodo.wav,2,45,145,15,,,space,1.30040097237,001,magdabi,59.8981776222,prodShadow,2016_Jan_25_1202,tuc,
target,duku,stim/duku.wav,2,46,146,17,,,space,0.984364032745,001,magdabi,59.8981776222,prodShadow,2016_Jan_25_1202,tuc,
pname,polo,stim/polo.wav,2,47,147,40,,,space,0.934464216232,001,magdabi,59.8981776222,prodShadow,2016_Jan_25_1202,tuc,
target,peke,stim/peke.wav,2,48,148,37,,,space,0.550502061844,001,magdabi,59.8981776222,prodShadow,2016_Jan_25_1202,tuc,
target,biki,stim/biki.wav,2,49,149,5,,,space,0.650279998779,001,magdabi,59.8981776222,prodShadow,2016_Jan_25_1202,tuc,
