status,text,stim,trials.thisRepN,trials.thisTrialN,trials.thisN,trials.thisIndex,key_resp_3.keys,key_resp_3.rt,key_resp_2.keys,key_resp_2.rt,key_resp_4.keys,key_resp_4.rt,session,participant,frameRate,expName,date,condition,
,,,,,,,space,2.95111203194,,,,,000,ems,59.9444903373,prodShadow,2015_Jun_29_1554,midd,
target,giki,stim/giki.wav,0,0,0,23,,,space,5.25160717964,,,000,ems,59.9444903373,prodShadow,2015_Jun_29_1554,midd,
target,paka,stim/paka.wav,0,1,1,35,,,space,3.38446903229,,,000,ems,59.9444903373,prodShadow,2015_Jun_29_1554,midd,
distractor,ada,stim/ada.wav,0,2,2,0,,,space,3.41803216934,,,000,ems,59.9444903373,prodShadow,2015_Jun_29_1554,midd,
pname,gato,stim/gato.wav,0,3,3,21,,,space,3.85112810135,,,000,ems,59.9444903373,prodShadow,2015_Jun_29_1554,midd,
distractor,oba,stim/oba.wav,0,4,4,33,,,space,3.1173210144,,,000,ems,59.9444903373,prodShadow,2015_Jun_29_1554,midd,
target,deke,stim/deke.wav,0,5,5,13,,,space,3.58408594131,,,000,ems,59.9444903373,prodShadow,2015_Jun_29_1554,midd,
target,toko,stim/toko.wav,0,6,6,47,,,space,3.26786184311,,,000,ems,59.9444903373,prodShadow,2015_Jun_29_1554,midd,
pname,gota,stim/gota.wav,0,7,7,25,,,space,3.78436517715,,,000,ems,59.9444903373,prodShadow,2015_Jun_29_1554,midd,
target,puku,stim/puku.wav,0,8,8,41,,,space,3.55140399933,,,000,ems,59.9444903373,prodShadow,2015_Jun_29_1554,midd,
distractor,apa,stim/apa.wav,0,9,9,1,,,space,3.63418388367,,,000,ems,59.9444903373,prodShadow,2015_Jun_29_1554,midd,
target,koko,stim/koko.wav,0,10,10,31,,,space,3.48446416855,,,000,ems,59.9444903373,prodShadow,2015_Jun_29_1554,midd,
target,diki,stim/diki.wav,0,11,11,14,,,space,3.86784887314,,,000,ems,59.9444903373,prodShadow,2015_Jun_29_1554,midd,
pname,polo,stim/polo.wav,0,12,12,40,,,space,3.50146508217,,,000,ems,59.9444903373,prodShadow,2015_Jun_29_1554,midd,
target,goko,stim/goko.wav,0,13,13,24,,,space,3.46774983406,,,000,ems,59.9444903373,prodShadow,2015_Jun_29_1554,midd,
pname,dado,stim/dado.wav,0,14,14,11,,,space,3.45105099678,,,000,ems,59.9444903373,prodShadow,2015_Jun_29_1554,midd,
distractor,uta,stim/uta.wav,0,15,15,49,,,space,3.31796097755,,,000,ems,59.9444903373,prodShadow,2015_Jun_29_1554,midd,
target,keke,stim/keke.wav,0,16,16,29,,,space,3.73390412331,,,000,ems,59.9444903373,prodShadow,2015_Jun_29_1554,midd,
distractor,eda,stim/eda.wav,0,17,17,18,,,space,3.46744394302,,,000,ems,59.9444903373,prodShadow,2015_Jun_29_1554,midd,
target,duku,stim/duku.wav,0,18,18,17,,,space,3.78417897224,,,000,ems,59.9444903373,prodShadow,2015_Jun_29_1554,midd,
pname,bola,stim/bola.wav,0,19,19,7,,,space,3.90097403526,,,000,ems,59.9444903373,prodShadow,2015_Jun_29_1554,midd,
target,boko,stim/boko.wav,0,20,20,6,,,space,4.06726813316,,,000,ems,59.9444903373,prodShadow,2015_Jun_29_1554,midd,
target,taka,stim/taka.wav,0,21,21,43,,,space,3.60118198395,,,000,ems,59.9444903373,prodShadow,2015_Jun_29_1554,midd,
target,daka,stim/daka.wav,0,22,22,12,,,space,3.95135807991,,,000,ems,59.9444903373,prodShadow,2015_Jun_29_1554,midd,
pname,bala,stim/bala.wav,0,23,23,3,,,space,3.75054502487,,,000,ems,59.9444903373,prodShadow,2015_Jun_29_1554,midd,
target,buku,stim/buku.wav,0,24,24,8,,,space,3.86804199219,,,000,ems,59.9444903373,prodShadow,2015_Jun_29_1554,midd,
target,doko,stim/doko.wav,0,25,25,16,,,space,3.53442001343,,,000,ems,59.9444903373,prodShadow,2015_Jun_29_1554,midd,
target,kaka,stim/kaka.wav,0,26,26,28,,,space,3.88531398773,,,000,ems,59.9444903373,prodShadow,2015_Jun_29_1554,midd,
pname,topo,stim/topo.wav,0,27,27,46,,,space,3.75216889381,,,000,ems,59.9444903373,prodShadow,2015_Jun_29_1554,midd,
distractor,oka,stim/oka.wav,0,28,28,34,,,space,3.45160079002,,,000,ems,59.9444903373,prodShadow,2015_Jun_29_1554,midd,
target,kuku,stim/kuku.wav,0,29,29,32,,,space,3.3845000267,,,000,ems,59.9444903373,prodShadow,2015_Jun_29_1554,midd,
pname,dodo,stim/dodo.wav,0,30,30,15,,,space,3.21695804596,,,000,ems,59.9444903373,prodShadow,2015_Jun_29_1554,midd,
pname,taco,stim/taco.wav,0,31,31,42,,,space,3.55023193359,,,000,ems,59.9444903373,prodShadow,2015_Jun_29_1554,midd,
target,poko,stim/poko.wav,0,32,32,39,,,space,3.3841919899,,,000,ems,59.9444903373,prodShadow,2015_Jun_29_1554,midd,
pname,palo,stim/palo.wav,0,33,33,36,,,space,3.33384799957,,,000,ems,59.9444903373,prodShadow,2015_Jun_29_1554,midd,
distractor,ita,stim/ita.wav,0,34,34,27,,,space,3.76770997047,,,000,ems,59.9444903373,prodShadow,2015_Jun_29_1554,midd,
pname,coco,stim/coco.wav,0,35,35,10,,,space,3.63481092453,,,000,ems,59.9444903373,prodShadow,2015_Jun_29_1554,midd,
target,teke,stim/teke.wav,0,36,36,44,,,space,3.58450698853,,,000,ems,59.9444903373,prodShadow,2015_Jun_29_1554,midd,
target,kiki,stim/kiki.wav,0,37,37,30,,,space,3.4517250061,,,000,ems,59.9444903373,prodShadow,2015_Jun_29_1554,midd,
target,geke,stim/geke.wav,0,38,38,22,,,space,3.3170170784,,,000,ems,59.9444903373,prodShadow,2015_Jun_29_1554,midd,
target,peke,stim/peke.wav,0,39,39,37,,,space,3.26753592491,,,000,ems,59.9444903373,prodShadow,2015_Jun_29_1554,midd,
distractor,epa,stim/epa.wav,0,40,40,19,,,space,3.45189714432,,,000,ems,59.9444903373,prodShadow,2015_Jun_29_1554,midd,
target,tiki,stim/tiki.wav,0,41,41,45,,,space,3.56778597832,,,000,ems,59.9444903373,prodShadow,2015_Jun_29_1554,midd,
target,gaka,stim/gaka.wav,0,42,42,20,,,space,3.68435811996,,,000,ems,59.9444903373,prodShadow,2015_Jun_29_1554,midd,
target,piki,stim/piki.wav,0,43,43,38,,,space,3.41785097122,,,000,ems,59.9444903373,prodShadow,2015_Jun_29_1554,midd,
target,baka,stim/baka.wav,0,44,44,2,,,space,3.61805391312,,,000,ems,59.9444903373,prodShadow,2015_Jun_29_1554,midd,
target,tuku,stim/tuku.wav,0,45,45,48,,,space,3.2344379425,,,000,ems,59.9444903373,prodShadow,2015_Jun_29_1554,midd,
target,biki,stim/biki.wav,0,46,46,5,,,space,4.00039601326,,,000,ems,59.9444903373,prodShadow,2015_Jun_29_1554,midd,
pname,caca,stim/caca.wav,0,47,47,9,,,space,3.31861710548,,,000,ems,59.9444903373,prodShadow,2015_Jun_29_1554,midd,
target,beke,stim/beke.wav,0,48,48,4,,,space,4.08480501175,,,000,ems,59.9444903373,prodShadow,2015_Jun_29_1554,midd,
target,guku,stim/guku.wav,0,49,49,26,,,space,3.53443217278,,,000,ems,59.9444903373,prodShadow,2015_Jun_29_1554,midd,
pname,bola,stim/bola.wav,1,0,50,7,,,space,3.58419203758,,,000,ems,59.9444903373,prodShadow,2015_Jun_29_1554,midd,
target,teke,stim/teke.wav,1,1,51,44,,,space,3.38378810883,,,000,ems,59.9444903373,prodShadow,2015_Jun_29_1554,midd,
target,diki,stim/diki.wav,1,2,52,14,,,space,3.40115094185,,,000,ems,59.9444903373,prodShadow,2015_Jun_29_1554,midd,
distractor,epa,stim/epa.wav,1,3,53,19,,,space,3.25060915947,,,000,ems,59.9444903373,prodShadow,2015_Jun_29_1554,midd,
target,deke,stim/deke.wav,1,4,54,13,,,space,3.63489294052,,,000,ems,59.9444903373,prodShadow,2015_Jun_29_1554,midd,
target,beke,stim/beke.wav,1,5,55,4,,,space,3.36736106873,,,000,ems,59.9444903373,prodShadow,2015_Jun_29_1554,midd,
pname,dado,stim/dado.wav,1,6,56,11,,,space,3.01775503159,,,000,ems,59.9444903373,prodShadow,2015_Jun_29_1554,midd,
target,giki,stim/giki.wav,1,7,57,23,,,space,3.30086708069,,,000,ems,59.9444903373,prodShadow,2015_Jun_29_1554,midd,
pname,taco,stim/taco.wav,1,8,58,42,,,space,3.51744699478,,,000,ems,59.9444903373,prodShadow,2015_Jun_29_1554,midd,
target,kaka,stim/kaka.wav,1,9,59,28,,,space,3.61858606339,,,000,ems,59.9444903373,prodShadow,2015_Jun_29_1554,midd,
pname,coco,stim/coco.wav,1,10,60,10,,,space,3.11784696579,,,000,ems,59.9444903373,prodShadow,2015_Jun_29_1554,midd,
distractor,ita,stim/ita.wav,1,11,61,27,,,space,3.28511404991,,,000,ems,59.9444903373,prodShadow,2015_Jun_29_1554,midd,
target,daka,stim/daka.wav,1,12,62,12,,,space,3.36847805977,,,000,ems,59.9444903373,prodShadow,2015_Jun_29_1554,midd,
distractor,ada,stim/ada.wav,1,13,63,0,,,space,3.38399004936,,,000,ems,59.9444903373,prodShadow,2015_Jun_29_1554,midd,
distractor,uta,stim/uta.wav,1,14,64,49,,,space,3.44881296158,,,000,ems,59.9444903373,prodShadow,2015_Jun_29_1554,midd,
target,biki,stim/biki.wav,1,15,65,5,,,space,3.80060482025,,,000,ems,59.9444903373,prodShadow,2015_Jun_29_1554,midd,
target,poko,stim/poko.wav,1,16,66,39,,,space,3.01851582527,,,000,ems,59.9444903373,prodShadow,2015_Jun_29_1554,midd,
target,puku,stim/puku.wav,1,17,67,41,,,space,4.91635704041,,,000,ems,59.9444903373,prodShadow,2015_Jun_29_1554,midd,
target,gaka,stim/gaka.wav,1,18,68,20,,,space,3.56792998314,,,000,ems,59.9444903373,prodShadow,2015_Jun_29_1554,midd,
target,peke,stim/peke.wav,1,19,69,37,,,space,3.25152897835,,,000,ems,59.9444903373,prodShadow,2015_Jun_29_1554,midd,
target,buku,stim/buku.wav,1,20,70,8,,,space,3.66527700424,,,000,ems,59.9444903373,prodShadow,2015_Jun_29_1554,midd,
target,baka,stim/baka.wav,1,21,71,2,,,space,3.53483819962,,,000,ems,59.9444903373,prodShadow,2015_Jun_29_1554,midd,
target,paka,stim/paka.wav,1,22,72,35,,,space,3.11575198174,,,000,ems,59.9444903373,prodShadow,2015_Jun_29_1554,midd,
target,tuku,stim/tuku.wav,1,23,73,48,,,space,4.20222783089,,,000,ems,59.9444903373,prodShadow,2015_Jun_29_1554,midd,
target,kuku,stim/kuku.wav,1,24,74,32,,,space,3.21792197227,,,000,ems,59.9444903373,prodShadow,2015_Jun_29_1554,midd,
target,boko,stim/boko.wav,1,25,75,6,,,space,3.65084600449,,,000,ems,59.9444903373,prodShadow,2015_Jun_29_1554,midd,
target,goko,stim/goko.wav,1,26,76,24,,,space,3.91734409332,,,000,ems,59.9444903373,prodShadow,2015_Jun_29_1554,midd,
target,koko,stim/koko.wav,1,27,77,31,,,space,3.16621589661,,,000,ems,59.9444903373,prodShadow,2015_Jun_29_1554,midd,
distractor,eda,stim/eda.wav,1,28,78,18,,,space,3.44726204872,,,000,ems,59.9444903373,prodShadow,2015_Jun_29_1554,midd,
pname,gota,stim/gota.wav,1,29,79,25,,,space,3.76496505737,,,000,ems,59.9444903373,prodShadow,2015_Jun_29_1554,midd,
pname,bala,stim/bala.wav,1,30,80,3,,,space,3.26927304268,,,000,ems,59.9444903373,prodShadow,2015_Jun_29_1554,midd,
pname,gato,stim/gato.wav,1,31,81,21,,,space,3.90101480484,,,000,ems,59.9444903373,prodShadow,2015_Jun_29_1554,midd,
target,toko,stim/toko.wav,1,32,82,47,,,space,3.06817603111,,,000,ems,59.9444903373,prodShadow,2015_Jun_29_1554,midd,
pname,palo,stim/palo.wav,1,33,83,36,,,space,3.15306615829,,,000,ems,59.9444903373,prodShadow,2015_Jun_29_1554,midd,
target,doko,stim/doko.wav,1,34,84,16,,,space,3.8503639698,,,000,ems,59.9444903373,prodShadow,2015_Jun_29_1554,midd,
pname,polo,stim/polo.wav,1,35,85,40,,,space,3.48468208313,,,000,ems,59.9444903373,prodShadow,2015_Jun_29_1554,midd,
target,tiki,stim/tiki.wav,1,36,86,45,,,space,3.36745285988,,,000,ems,59.9444903373,prodShadow,2015_Jun_29_1554,midd,
target,taka,stim/taka.wav,1,37,87,43,,,space,3.3174829483,,,000,ems,59.9444903373,prodShadow,2015_Jun_29_1554,midd,
target,guku,stim/guku.wav,1,38,88,26,,,space,3.10144400597,,,000,ems,59.9444903373,prodShadow,2015_Jun_29_1554,midd,
target,keke,stim/keke.wav,1,39,89,29,,,space,3.0171649456,,,000,ems,59.9444903373,prodShadow,2015_Jun_29_1554,midd,
distractor,apa,stim/apa.wav,1,40,90,1,,,space,3.83412408829,,,000,ems,59.9444903373,prodShadow,2015_Jun_29_1554,midd,
pname,topo,stim/topo.wav,1,41,91,46,,,space,3.40063309669,,,000,ems,59.9444903373,prodShadow,2015_Jun_29_1554,midd,
distractor,oba,stim/oba.wav,1,42,92,33,,,space,3.7342338562,,,000,ems,59.9444903373,prodShadow,2015_Jun_29_1554,midd,
distractor,oka,stim/oka.wav,1,43,93,34,,,space,3.81811690331,,,000,ems,59.9444903373,prodShadow,2015_Jun_29_1554,midd,
target,piki,stim/piki.wav,1,44,94,38,,,space,3.2678360939,,,000,ems,59.9444903373,prodShadow,2015_Jun_29_1554,midd,
target,duku,stim/duku.wav,1,45,95,17,,,space,3.45122790337,,,000,ems,59.9444903373,prodShadow,2015_Jun_29_1554,midd,
pname,dodo,stim/dodo.wav,1,46,96,15,,,space,3.2851331234,,,000,ems,59.9444903373,prodShadow,2015_Jun_29_1554,midd,
target,geke,stim/geke.wav,1,47,97,22,,,space,3.41785216331,,,000,ems,59.9444903373,prodShadow,2015_Jun_29_1554,midd,
pname,caca,stim/caca.wav,1,48,98,9,,,space,3.10199403763,,,000,ems,59.9444903373,prodShadow,2015_Jun_29_1554,midd,
target,kiki,stim/kiki.wav,1,49,99,30,,,space,3.11711597443,,,000,ems,59.9444903373,prodShadow,2015_Jun_29_1554,midd,
target,kiki,stim/kiki.wav,2,0,100,30,,,space,2.7506878376,,,000,ems,59.9444903373,prodShadow,2015_Jun_29_1554,midd,
pname,palo,stim/palo.wav,2,1,101,36,,,space,3.33456087112,,,000,ems,59.9444903373,prodShadow,2015_Jun_29_1554,midd,
pname,dodo,stim/dodo.wav,2,2,102,15,,,space,3.11741709709,,,000,ems,59.9444903373,prodShadow,2015_Jun_29_1554,midd,
distractor,oba,stim/oba.wav,2,3,103,33,,,space,3.53411602974,,,000,ems,59.9444903373,prodShadow,2015_Jun_29_1554,midd,
target,daka,stim/daka.wav,2,4,104,12,,,space,3.78348588943,,,000,ems,59.9444903373,prodShadow,2015_Jun_29_1554,midd,
distractor,oka,stim/oka.wav,2,5,105,34,,,space,3.53455400467,,,000,ems,59.9444903373,prodShadow,2015_Jun_29_1554,midd,
target,goko,stim/goko.wav,2,6,106,24,,,space,3.65037107468,,,000,ems,59.9444903373,prodShadow,2015_Jun_29_1554,midd,
pname,taco,stim/taco.wav,2,7,107,42,,,space,3.15207695961,,,000,ems,59.9444903373,prodShadow,2015_Jun_29_1554,midd,
target,toko,stim/toko.wav,2,8,108,47,,,space,3.25113296509,,,000,ems,59.9444903373,prodShadow,2015_Jun_29_1554,midd,
target,peke,stim/peke.wav,2,9,109,37,,,space,3.05127215385,,,000,ems,59.9444903373,prodShadow,2015_Jun_29_1554,midd,
target,taka,stim/taka.wav,2,10,110,43,,,space,3.66817903519,,,000,ems,59.9444903373,prodShadow,2015_Jun_29_1554,midd,
target,guku,stim/guku.wav,2,11,111,26,,,space,3.3335750103,,,000,ems,59.9444903373,prodShadow,2015_Jun_29_1554,midd,
target,kuku,stim/kuku.wav,2,12,112,32,,,space,3.11781311035,,,000,ems,59.9444903373,prodShadow,2015_Jun_29_1554,midd,
target,paka,stim/paka.wav,2,13,113,35,,,space,3.13427805901,,,000,ems,59.9444903373,prodShadow,2015_Jun_29_1554,midd,
pname,gota,stim/gota.wav,2,14,114,25,,,space,3.63462400436,,,000,ems,59.9444903373,prodShadow,2015_Jun_29_1554,midd,
pname,caca,stim/caca.wav,2,15,115,9,,,space,3.43360519409,,,000,ems,59.9444903373,prodShadow,2015_Jun_29_1554,midd,
pname,topo,stim/topo.wav,2,16,116,46,,,space,3.38451194763,,,000,ems,59.9444903373,prodShadow,2015_Jun_29_1554,midd,
target,boko,stim/boko.wav,2,17,117,6,,,space,3.43418097496,,,000,ems,59.9444903373,prodShadow,2015_Jun_29_1554,midd,
distractor,uta,stim/uta.wav,2,18,118,49,,,space,3.31731200218,,,000,ems,59.9444903373,prodShadow,2015_Jun_29_1554,midd,
target,tuku,stim/tuku.wav,2,19,119,48,,,space,3.00145316124,,,000,ems,59.9444903373,prodShadow,2015_Jun_29_1554,midd,
target,piki,stim/piki.wav,2,20,120,38,,,space,3.15189099312,,,000,ems,59.9444903373,prodShadow,2015_Jun_29_1554,midd,
pname,dado,stim/dado.wav,2,21,121,11,,,space,3.26723384857,,,000,ems,59.9444903373,prodShadow,2015_Jun_29_1554,midd,
target,buku,stim/buku.wav,2,22,122,8,,,space,3.54978013039,,,000,ems,59.9444903373,prodShadow,2015_Jun_29_1554,midd,
distractor,ita,stim/ita.wav,2,23,123,27,,,space,3.43436598778,,,000,ems,59.9444903373,prodShadow,2015_Jun_29_1554,midd,
pname,gato,stim/gato.wav,2,24,124,21,,,space,3.83428406715,,,000,ems,59.9444903373,prodShadow,2015_Jun_29_1554,midd,
target,diki,stim/diki.wav,2,25,125,14,,,space,3.35075283051,,,000,ems,59.9444903373,prodShadow,2015_Jun_29_1554,midd,
pname,coco,stim/coco.wav,2,26,126,10,,,space,3.35083198547,,,000,ems,59.9444903373,prodShadow,2015_Jun_29_1554,midd,
target,poko,stim/poko.wav,2,27,127,39,,,space,3.61760687828,,,000,ems,59.9444903373,prodShadow,2015_Jun_29_1554,midd,
target,beke,stim/beke.wav,2,28,128,4,,,space,3.88436102867,,,000,ems,59.9444903373,prodShadow,2015_Jun_29_1554,midd,
target,deke,stim/deke.wav,2,29,129,13,,,space,3.6174018383,,,000,ems,59.9444903373,prodShadow,2015_Jun_29_1554,midd,
target,koko,stim/koko.wav,2,30,130,31,,,space,3.96869111061,,,000,ems,59.9444903373,prodShadow,2015_Jun_29_1554,midd,
target,gaka,stim/gaka.wav,2,31,131,20,,,space,3.28391909599,,,000,ems,59.9444903373,prodShadow,2015_Jun_29_1554,midd,
distractor,epa,stim/epa.wav,2,32,132,19,,,space,3.08521413803,,,000,ems,59.9444903373,prodShadow,2015_Jun_29_1554,midd,
pname,bola,stim/bola.wav,2,33,133,7,,,space,3.63443112373,,,000,ems,59.9444903373,prodShadow,2015_Jun_29_1554,midd,
target,geke,stim/geke.wav,2,34,134,22,,,space,3.25112295151,,,000,ems,59.9444903373,prodShadow,2015_Jun_29_1554,midd,
target,kaka,stim/kaka.wav,2,35,135,28,,,space,3.58438301086,,,000,ems,59.9444903373,prodShadow,2015_Jun_29_1554,midd,
distractor,eda,stim/eda.wav,2,36,136,18,,,space,3.83335590363,,,000,ems,59.9444903373,prodShadow,2015_Jun_29_1554,midd,
target,baka,stim/baka.wav,2,37,137,2,,,space,4.38481497765,,,000,ems,59.9444903373,prodShadow,2015_Jun_29_1554,midd,
target,giki,stim/giki.wav,2,38,138,23,,,space,3.40085315704,,,000,ems,59.9444903373,prodShadow,2015_Jun_29_1554,midd,
target,puku,stim/puku.wav,2,39,139,41,,,space,3.8503780365,,,000,ems,59.9444903373,prodShadow,2015_Jun_29_1554,midd,
target,biki,stim/biki.wav,2,40,140,5,,,space,3.20097994804,,,000,ems,59.9444903373,prodShadow,2015_Jun_29_1554,midd,
target,doko,stim/doko.wav,2,41,141,16,,,space,4.00128388405,,,000,ems,59.9444903373,prodShadow,2015_Jun_29_1554,midd,
target,keke,stim/keke.wav,2,42,142,29,,,space,3.26801300049,,,000,ems,59.9444903373,prodShadow,2015_Jun_29_1554,midd,
distractor,apa,stim/apa.wav,2,43,143,1,,,space,3.43371200562,,,000,ems,59.9444903373,prodShadow,2015_Jun_29_1554,midd,
pname,polo,stim/polo.wav,2,44,144,40,,,space,3.98465299606,,,000,ems,59.9444903373,prodShadow,2015_Jun_29_1554,midd,
target,teke,stim/teke.wav,2,45,145,44,,,space,3.10141015053,,,000,ems,59.9444903373,prodShadow,2015_Jun_29_1554,midd,
target,duku,stim/duku.wav,2,46,146,17,,,space,3.85093188286,,,000,ems,59.9444903373,prodShadow,2015_Jun_29_1554,midd,
distractor,ada,stim/ada.wav,2,47,147,0,,,space,3.40171790123,,,000,ems,59.9444903373,prodShadow,2015_Jun_29_1554,midd,
target,tiki,stim/tiki.wav,2,48,148,45,,,space,3.16708183289,,,000,ems,59.9444903373,prodShadow,2015_Jun_29_1554,midd,
pname,bala,stim/bala.wav,2,49,149,3,,,space,3.58569192886,,,000,ems,59.9444903373,prodShadow,2015_Jun_29_1554,midd,
,,,,,,,,,,,space,134.682594061,000,ems,59.9444903373,prodShadow,2015_Jun_29_1554,midd,
