status,stim,trials.thisRepN,trials.thisTrialN,trials.thisN,trials.thisIndex,key_resp_2.keys,key_resp_2.rt,key_resp_4.keys,key_resp_4.rt,session,participant,frameRate,expName,date,condition,
target,stim/palo.png,0,0,0,16,space,4.00101709366,,,001,barbibi,60.0204060314,prodShadow,2016_Feb_12_1307,tuc,
target,stim/coco.png,0,1,1,11,space,2.36633706093,,,001,barbibi,60.0204060314,prodShadow,2016_Feb_12_1307,tuc,
target,stim/caca.png,0,2,2,10,space,1.18380904198,,,001,barbibi,60.0204060314,prodShadow,2016_Feb_12_1307,tuc,
target,stim/gota.png,0,3,3,15,space,1.40092611313,,,001,barbibi,60.0204060314,prodShadow,2016_Feb_12_1307,tuc,
target,stim/polo.png,0,4,4,17,space,1.16637396812,,,001,barbibi,60.0204060314,prodShadow,2016_Feb_12_1307,tuc,
distractor,stim/lapiz.png,0,5,5,3,space,1.03423810005,,,001,barbibi,60.0204060314,prodShadow,2016_Feb_12_1307,tuc,
target,stim/bola.png,0,6,6,9,space,1.06796193123,,,001,barbibi,60.0204060314,prodShadow,2016_Feb_12_1307,tuc,
distractor,stim/manzana.png,0,7,7,4,space,1.06835913658,,,001,barbibi,60.0204060314,prodShadow,2016_Feb_12_1307,tuc,
distractor,stim/libro.png,0,8,8,5,space,0.901391029358,,,001,barbibi,60.0204060314,prodShadow,2016_Feb_12_1307,tuc,
target,stim/topo.png,0,9,9,19,space,18.1031529903,,,001,barbibi,60.0204060314,prodShadow,2016_Feb_12_1307,tuc,
target,stim/dado.png,0,10,10,12,space,0.66724395752,,,001,barbibi,60.0204060314,prodShadow,2016_Feb_12_1307,tuc,
distractor,stim/mochila.png,0,11,11,7,space,0.600812911987,,,001,barbibi,60.0204060314,prodShadow,2016_Feb_12_1307,tuc,
target,stim/taco.png,0,12,12,18,space,0.933964014053,,,001,barbibi,60.0204060314,prodShadow,2016_Feb_12_1307,tuc,
distractor,stim/sol.png,0,13,13,1,space,0.616737127304,,,001,barbibi,60.0204060314,prodShadow,2016_Feb_12_1307,tuc,
target,stim/dodo.png,0,14,14,13,space,1.13471198082,,,001,barbibi,60.0204060314,prodShadow,2016_Feb_12_1307,tuc,
distractor,stim/silla.png,0,15,15,6,space,0.801135063171,,,001,barbibi,60.0204060314,prodShadow,2016_Feb_12_1307,tuc,
target,stim/bala.png,0,16,16,8,space,0.817461013794,,,001,barbibi,60.0204060314,prodShadow,2016_Feb_12_1307,tuc,
distractor,stim/sombrero.png,0,17,17,0,space,1.81718707085,,,001,barbibi,60.0204060314,prodShadow,2016_Feb_12_1307,tuc,
target,stim/gato.png,0,18,18,14,space,0.634147167206,,,001,barbibi,60.0204060314,prodShadow,2016_Feb_12_1307,tuc,
distractor,stim/arbol.png,0,19,19,2,space,0.68467092514,,,001,barbibi,60.0204060314,prodShadow,2016_Feb_12_1307,tuc,
target,stim/coco.png,1,0,20,11,space,0.917934894562,,,001,barbibi,60.0204060314,prodShadow,2016_Feb_12_1307,tuc,
distractor,stim/arbol.png,1,1,21,2,space,0.849979877472,,,001,barbibi,60.0204060314,prodShadow,2016_Feb_12_1307,tuc,
distractor,stim/manzana.png,1,2,22,4,space,0.734800100327,,,001,barbibi,60.0204060314,prodShadow,2016_Feb_12_1307,tuc,
distractor,stim/mochila.png,1,3,23,7,space,1.01786184311,,,001,barbibi,60.0204060314,prodShadow,2016_Feb_12_1307,tuc,
distractor,stim/sombrero.png,1,4,24,0,space,0.867069005966,,,001,barbibi,60.0204060314,prodShadow,2016_Feb_12_1307,tuc,
target,stim/polo.png,1,5,25,17,space,0.717232942581,,,001,barbibi,60.0204060314,prodShadow,2016_Feb_12_1307,tuc,
distractor,stim/libro.png,1,6,26,5,space,0.833708047867,,,001,barbibi,60.0204060314,prodShadow,2016_Feb_12_1307,tuc,
distractor,stim/sol.png,1,7,27,1,space,0.784762144089,,,001,barbibi,60.0204060314,prodShadow,2016_Feb_12_1307,tuc,
target,stim/dodo.png,1,8,28,13,space,0.883635997772,,,001,barbibi,60.0204060314,prodShadow,2016_Feb_12_1307,tuc,
distractor,stim/lapiz.png,1,9,29,3,space,0.683413982391,,,001,barbibi,60.0204060314,prodShadow,2016_Feb_12_1307,tuc,
target,stim/dado.png,1,10,30,12,space,0.934509038925,,,001,barbibi,60.0204060314,prodShadow,2016_Feb_12_1307,tuc,
target,stim/gato.png,1,11,31,14,space,0.650722980499,,,001,barbibi,60.0204060314,prodShadow,2016_Feb_12_1307,tuc,
target,stim/bala.png,1,12,32,8,space,0.583796024323,,,001,barbibi,60.0204060314,prodShadow,2016_Feb_12_1307,tuc,
target,stim/topo.png,1,13,33,19,space,0.767115831375,,,001,barbibi,60.0204060314,prodShadow,2016_Feb_12_1307,tuc,
target,stim/bola.png,1,14,34,9,space,0.902225971222,,,001,barbibi,60.0204060314,prodShadow,2016_Feb_12_1307,tuc,
target,stim/palo.png,1,15,35,16,space,0.950936079025,,,001,barbibi,60.0204060314,prodShadow,2016_Feb_12_1307,tuc,
target,stim/caca.png,1,16,36,10,space,0.951653957367,,,001,barbibi,60.0204060314,prodShadow,2016_Feb_12_1307,tuc,
target,stim/gota.png,1,17,37,15,space,0.80076789856,,,001,barbibi,60.0204060314,prodShadow,2016_Feb_12_1307,tuc,
target,stim/taco.png,1,18,38,18,space,0.835012197495,,,001,barbibi,60.0204060314,prodShadow,2016_Feb_12_1307,tuc,
distractor,stim/silla.png,1,19,39,6,space,0.56813621521,,,001,barbibi,60.0204060314,prodShadow,2016_Feb_12_1307,tuc,
distractor,stim/sombrero.png,2,0,40,0,space,1.05081796646,,,001,barbibi,60.0204060314,prodShadow,2016_Feb_12_1307,tuc,
distractor,stim/lapiz.png,2,1,41,3,space,0.917478084564,,,001,barbibi,60.0204060314,prodShadow,2016_Feb_12_1307,tuc,
target,stim/topo.png,2,2,42,19,space,0.801546096802,,,001,barbibi,60.0204060314,prodShadow,2016_Feb_12_1307,tuc,
distractor,stim/manzana.png,2,3,43,4,space,0.950329065323,,,001,barbibi,60.0204060314,prodShadow,2016_Feb_12_1307,tuc,
distractor,stim/sol.png,2,4,44,1,space,0.517302036285,,,001,barbibi,60.0204060314,prodShadow,2016_Feb_12_1307,tuc,
target,stim/dodo.png,2,5,45,13,space,0.850476026535,,,001,barbibi,60.0204060314,prodShadow,2016_Feb_12_1307,tuc,
target,stim/caca.png,2,6,46,10,space,0.616939067841,,,001,barbibi,60.0204060314,prodShadow,2016_Feb_12_1307,tuc,
distractor,stim/libro.png,2,7,47,5,space,0.401129007339,,,001,barbibi,60.0204060314,prodShadow,2016_Feb_12_1307,tuc,
target,stim/palo.png,2,8,48,16,space,0.730585098267,,,001,barbibi,60.0204060314,prodShadow,2016_Feb_12_1307,tuc,
target,stim/gota.png,2,9,49,15,space,0.368047952652,,,001,barbibi,60.0204060314,prodShadow,2016_Feb_12_1307,tuc,
target,stim/gato.png,2,10,50,14,space,0.616926908493,,,001,barbibi,60.0204060314,prodShadow,2016_Feb_12_1307,tuc,
target,stim/dado.png,2,11,51,12,space,0.183001041412,,,001,barbibi,60.0204060314,prodShadow,2016_Feb_12_1307,tuc,
distractor,stim/arbol.png,2,12,52,2,space,0.851590156555,,,001,barbibi,60.0204060314,prodShadow,2016_Feb_12_1307,tuc,
distractor,stim/silla.png,2,13,53,6,space,0.650671958923,,,001,barbibi,60.0204060314,prodShadow,2016_Feb_12_1307,tuc,
target,stim/polo.png,2,14,54,17,space,0.450513839722,,,001,barbibi,60.0204060314,prodShadow,2016_Feb_12_1307,tuc,
target,stim/coco.png,2,15,55,11,space,0.584331035614,,,001,barbibi,60.0204060314,prodShadow,2016_Feb_12_1307,tuc,
target,stim/bola.png,2,16,56,9,space,0.550869941711,,,001,barbibi,60.0204060314,prodShadow,2016_Feb_12_1307,tuc,
target,stim/bala.png,2,17,57,8,space,0.867719173431,,,001,barbibi,60.0204060314,prodShadow,2016_Feb_12_1307,tuc,
target,stim/taco.png,2,18,58,18,space,0.648268938065,,,001,barbibi,60.0204060314,prodShadow,2016_Feb_12_1307,tuc,
distractor,stim/mochila.png,2,19,59,7,space,0.585526227951,,,001,barbibi,60.0204060314,prodShadow,2016_Feb_12_1307,tuc,
,,,,,,,,space,1.56547307968,001,barbibi,60.0204060314,prodShadow,2016_Feb_12_1307,tuc,
