status,text,stim,trials.thisRepN,trials.thisTrialN,trials.thisN,trials.thisIndex,key_resp_3.keys,key_resp_3.rt,key_resp_2.keys,key_resp_2.rt,key_resp_4.keys,key_resp_4.rt,session,participant,frameRate,expName,date,condition,
,,,,,,,space,0.134318113327,,,,,006,mav,60.1528810769,prodShadow,2015_Aug_09_2102,midd,
target,keke,stim/keke.wav,0,0,0,29,,,space,1.5509531498,,,006,mav,60.1528810769,prodShadow,2015_Aug_09_2102,midd,
distractor,ita,stim/ita.wav,0,1,1,27,,,space,1.01647090912,,,006,mav,60.1528810769,prodShadow,2015_Aug_09_2102,midd,
target,boko,stim/boko.wav,0,2,2,6,,,space,1.38410902023,,,006,mav,60.1528810769,prodShadow,2015_Aug_09_2102,midd,
target,toko,stim/toko.wav,0,3,3,47,,,space,1.16703510284,,,006,mav,60.1528810769,prodShadow,2015_Aug_09_2102,midd,
pname,dodo,stim/dodo.wav,0,4,4,15,,,space,1.18497800827,,,006,mav,60.1528810769,prodShadow,2015_Aug_09_2102,midd,
target,taka,stim/taka.wav,0,5,5,43,,,space,1.18357014656,,,006,mav,60.1528810769,prodShadow,2015_Aug_09_2102,midd,
target,kaka,stim/kaka.wav,0,6,6,28,,,space,1.0678460598,,,006,mav,60.1528810769,prodShadow,2015_Aug_09_2102,midd,
distractor,oka,stim/oka.wav,0,7,7,34,,,space,1.43495297432,,,006,mav,60.1528810769,prodShadow,2015_Aug_09_2102,midd,
pname,coco,stim/coco.wav,0,8,8,10,,,space,1.28370404243,,,006,mav,60.1528810769,prodShadow,2015_Aug_09_2102,midd,
target,gaka,stim/gaka.wav,0,9,9,20,,,space,1.16804289818,,,006,mav,60.1528810769,prodShadow,2015_Aug_09_2102,midd,
target,peke,stim/peke.wav,0,10,10,37,,,space,1.11787199974,,,006,mav,60.1528810769,prodShadow,2015_Aug_09_2102,midd,
target,duku,stim/duku.wav,0,11,11,17,,,space,1.21721386909,,,006,mav,60.1528810769,prodShadow,2015_Aug_09_2102,midd,
pname,bala,stim/bala.wav,0,12,12,3,,,space,1.16755509377,,,006,mav,60.1528810769,prodShadow,2015_Aug_09_2102,midd,
target,baka,stim/baka.wav,0,13,13,2,,,space,1.23380708694,,,006,mav,60.1528810769,prodShadow,2015_Aug_09_2102,midd,
pname,dado,stim/dado.wav,0,14,14,11,,,space,1.28292298317,,,006,mav,60.1528810769,prodShadow,2015_Aug_09_2102,midd,
target,buku,stim/buku.wav,0,15,15,8,,,space,1.31794190407,,,006,mav,60.1528810769,prodShadow,2015_Aug_09_2102,midd,
distractor,oba,stim/oba.wav,0,16,16,33,,,space,1.118309021,,,006,mav,60.1528810769,prodShadow,2015_Aug_09_2102,midd,
target,tuku,stim/tuku.wav,0,17,17,48,,,space,1.21866798401,,,006,mav,60.1528810769,prodShadow,2015_Aug_09_2102,midd,
target,koko,stim/koko.wav,0,18,18,31,,,space,1.20089793205,,,006,mav,60.1528810769,prodShadow,2015_Aug_09_2102,midd,
target,guku,stim/guku.wav,0,19,19,26,,,space,1.44999194145,,,006,mav,60.1528810769,prodShadow,2015_Aug_09_2102,midd,
target,paka,stim/paka.wav,0,20,20,35,,,space,1.41801905632,,,006,mav,60.1528810769,prodShadow,2015_Aug_09_2102,midd,
distractor,eda,stim/eda.wav,0,21,21,18,,,space,1.18427395821,,,006,mav,60.1528810769,prodShadow,2015_Aug_09_2102,midd,
pname,polo,stim/polo.wav,0,22,22,40,,,space,1.28433084488,,,006,mav,60.1528810769,prodShadow,2015_Aug_09_2102,midd,
target,tiki,stim/tiki.wav,0,23,23,45,,,space,1.15092110634,,,006,mav,60.1528810769,prodShadow,2015_Aug_09_2102,midd,
target,biki,stim/biki.wav,0,24,24,5,,,space,1.38339614868,,,006,mav,60.1528810769,prodShadow,2015_Aug_09_2102,midd,
target,beke,stim/beke.wav,0,25,25,4,,,space,1.51787805557,,,006,mav,60.1528810769,prodShadow,2015_Aug_09_2102,midd,
distractor,uta,stim/uta.wav,0,26,26,49,,,space,1.13404107094,,,006,mav,60.1528810769,prodShadow,2015_Aug_09_2102,midd,
pname,gota,stim/gota.wav,0,27,27,25,,,space,1.45134401321,,,006,mav,60.1528810769,prodShadow,2015_Aug_09_2102,midd,
target,kuku,stim/kuku.wav,0,28,28,32,,,space,1.11775994301,,,006,mav,60.1528810769,prodShadow,2015_Aug_09_2102,midd,
target,goko,stim/goko.wav,0,29,29,24,,,space,1.31772589684,,,006,mav,60.1528810769,prodShadow,2015_Aug_09_2102,midd,
distractor,ada,stim/ada.wav,0,30,30,0,,,space,1.25057601929,,,006,mav,60.1528810769,prodShadow,2015_Aug_09_2102,midd,
pname,caca,stim/caca.wav,0,31,31,9,,,space,1.1850399971,,,006,mav,60.1528810769,prodShadow,2015_Aug_09_2102,midd,
target,deke,stim/deke.wav,0,32,32,13,,,space,1.45015501976,,,006,mav,60.1528810769,prodShadow,2015_Aug_09_2102,midd,
pname,palo,stim/palo.wav,0,33,33,36,,,space,1.18353009224,,,006,mav,60.1528810769,prodShadow,2015_Aug_09_2102,midd,
target,teke,stim/teke.wav,0,34,34,44,,,space,1.08416795731,,,006,mav,60.1528810769,prodShadow,2015_Aug_09_2102,midd,
pname,bola,stim/bola.wav,0,35,35,7,,,space,1.36760210991,,,006,mav,60.1528810769,prodShadow,2015_Aug_09_2102,midd,
target,doko,stim/doko.wav,0,36,36,16,,,space,1.36770892143,,,006,mav,60.1528810769,prodShadow,2015_Aug_09_2102,midd,
target,kiki,stim/kiki.wav,0,37,37,30,,,space,1.2340760231,,,006,mav,60.1528810769,prodShadow,2015_Aug_09_2102,midd,
target,giki,stim/giki.wav,0,38,38,23,,,space,1.10087203979,,,006,mav,60.1528810769,prodShadow,2015_Aug_09_2102,midd,
target,poko,stim/poko.wav,0,39,39,39,,,space,1.05064415932,,,006,mav,60.1528810769,prodShadow,2015_Aug_09_2102,midd,
pname,taco,stim/taco.wav,0,40,40,42,,,space,1.28386616707,,,006,mav,60.1528810769,prodShadow,2015_Aug_09_2102,midd,
pname,gato,stim/gato.wav,0,41,41,21,,,space,1.4845058918,,,006,mav,60.1528810769,prodShadow,2015_Aug_09_2102,midd,
target,geke,stim/geke.wav,0,42,42,22,,,space,1.23446416855,,,006,mav,60.1528810769,prodShadow,2015_Aug_09_2102,midd,
pname,topo,stim/topo.wav,0,43,43,46,,,space,1.11739516258,,,006,mav,60.1528810769,prodShadow,2015_Aug_09_2102,midd,
target,piki,stim/piki.wav,0,44,44,38,,,space,0.984524965286,,,006,mav,60.1528810769,prodShadow,2015_Aug_09_2102,midd,
target,puku,stim/puku.wav,0,45,45,41,,,space,1.16713404655,,,006,mav,60.1528810769,prodShadow,2015_Aug_09_2102,midd,
distractor,apa,stim/apa.wav,0,46,46,1,,,space,1.25144910812,,,006,mav,60.1528810769,prodShadow,2015_Aug_09_2102,midd,
distractor,epa,stim/epa.wav,0,47,47,19,,,space,1.15115809441,,,006,mav,60.1528810769,prodShadow,2015_Aug_09_2102,midd,
target,diki,stim/diki.wav,0,48,48,14,,,space,1.21792984009,,,006,mav,60.1528810769,prodShadow,2015_Aug_09_2102,midd,
target,daka,stim/daka.wav,0,49,49,12,,,space,1.20200300217,,,006,mav,60.1528810769,prodShadow,2015_Aug_09_2102,midd,
target,baka,stim/baka.wav,1,0,50,2,,,space,1.23661518097,,,006,mav,60.1528810769,prodShadow,2015_Aug_09_2102,midd,
target,paka,stim/paka.wav,1,1,51,35,,,space,1.15092802048,,,006,mav,60.1528810769,prodShadow,2015_Aug_09_2102,midd,
target,doko,stim/doko.wav,1,2,52,16,,,space,1.31766605377,,,006,mav,60.1528810769,prodShadow,2015_Aug_09_2102,midd,
target,kuku,stim/kuku.wav,1,3,53,32,,,space,1.11766600609,,,006,mav,60.1528810769,prodShadow,2015_Aug_09_2102,midd,
distractor,oka,stim/oka.wav,1,4,54,34,,,space,1.28436493874,,,006,mav,60.1528810769,prodShadow,2015_Aug_09_2102,midd,
distractor,ada,stim/ada.wav,1,5,55,0,,,space,1.21757698059,,,006,mav,60.1528810769,prodShadow,2015_Aug_09_2102,midd,
target,buku,stim/buku.wav,1,6,56,8,,,space,1.26605582237,,,006,mav,60.1528810769,prodShadow,2015_Aug_09_2102,midd,
target,duku,stim/duku.wav,1,7,57,17,,,space,1.35249900818,,,006,mav,60.1528810769,prodShadow,2015_Aug_09_2102,midd,
target,diki,stim/diki.wav,1,8,58,14,,,space,1.23231482506,,,006,mav,60.1528810769,prodShadow,2015_Aug_09_2102,midd,
pname,polo,stim/polo.wav,1,9,59,40,,,space,1.16749405861,,,006,mav,60.1528810769,prodShadow,2015_Aug_09_2102,midd,
pname,dodo,stim/dodo.wav,1,10,60,15,,,space,1.13315391541,,,006,mav,60.1528810769,prodShadow,2015_Aug_09_2102,midd,
target,poko,stim/poko.wav,1,11,61,39,,,space,1.05140590668,,,006,mav,60.1528810769,prodShadow,2015_Aug_09_2102,midd,
target,kaka,stim/kaka.wav,1,12,62,28,,,space,1.18384504318,,,006,mav,60.1528810769,prodShadow,2015_Aug_09_2102,midd,
target,peke,stim/peke.wav,1,13,63,37,,,space,1.0834710598,,,006,mav,60.1528810769,prodShadow,2015_Aug_09_2102,midd,
target,gaka,stim/gaka.wav,1,14,64,20,,,space,1.23430895805,,,006,mav,60.1528810769,prodShadow,2015_Aug_09_2102,midd,
pname,gato,stim/gato.wav,1,15,65,21,,,space,1.54954504967,,,006,mav,60.1528810769,prodShadow,2015_Aug_09_2102,midd,
pname,bola,stim/bola.wav,1,16,66,7,,,space,1.38430309296,,,006,mav,60.1528810769,prodShadow,2015_Aug_09_2102,midd,
target,daka,stim/daka.wav,1,17,67,12,,,space,1.30423998833,,,006,mav,60.1528810769,prodShadow,2015_Aug_09_2102,midd,
pname,taco,stim/taco.wav,1,18,68,42,,,space,1.18223905563,,,006,mav,60.1528810769,prodShadow,2015_Aug_09_2102,midd,
pname,bala,stim/bala.wav,1,19,69,3,,,space,1.24952697754,,,006,mav,60.1528810769,prodShadow,2015_Aug_09_2102,midd,
target,koko,stim/koko.wav,1,20,70,31,,,space,1.25093793869,,,006,mav,60.1528810769,prodShadow,2015_Aug_09_2102,midd,
target,beke,stim/beke.wav,1,21,71,4,,,space,1.2844080925,,,006,mav,60.1528810769,prodShadow,2015_Aug_09_2102,midd,
target,tiki,stim/tiki.wav,1,22,72,45,,,space,1.08310699463,,,006,mav,60.1528810769,prodShadow,2015_Aug_09_2102,midd,
target,toko,stim/toko.wav,1,23,73,47,,,space,1.21535801888,,,006,mav,60.1528810769,prodShadow,2015_Aug_09_2102,midd,
target,puku,stim/puku.wav,1,24,74,41,,,space,1.20030212402,,,006,mav,60.1528810769,prodShadow,2015_Aug_09_2102,midd,
target,piki,stim/piki.wav,1,25,75,38,,,space,0.951143980026,,,006,mav,60.1528810769,prodShadow,2015_Aug_09_2102,midd,
pname,coco,stim/coco.wav,1,26,76,10,,,space,1.35004997253,,,006,mav,60.1528810769,prodShadow,2015_Aug_09_2102,midd,
distractor,epa,stim/epa.wav,1,27,77,19,,,space,1.31849098206,,,006,mav,60.1528810769,prodShadow,2015_Aug_09_2102,midd,
distractor,eda,stim/eda.wav,1,28,78,18,,,space,1.30014491081,,,006,mav,60.1528810769,prodShadow,2015_Aug_09_2102,midd,
pname,caca,stim/caca.wav,1,29,79,9,,,space,1.15182709694,,,006,mav,60.1528810769,prodShadow,2015_Aug_09_2102,midd,
distractor,ita,stim/ita.wav,1,30,80,27,,,space,1.22053217888,,,006,mav,60.1528810769,prodShadow,2015_Aug_09_2102,midd,
target,taka,stim/taka.wav,1,31,81,43,,,space,1.26937198639,,,006,mav,60.1528810769,prodShadow,2015_Aug_09_2102,midd,
target,giki,stim/giki.wav,1,32,82,23,,,space,1.08466100693,,,006,mav,60.1528810769,prodShadow,2015_Aug_09_2102,midd,
pname,dado,stim/dado.wav,1,33,83,11,,,space,1.28344798088,,,006,mav,60.1528810769,prodShadow,2015_Aug_09_2102,midd,
pname,palo,stim/palo.wav,1,34,84,36,,,space,1.2143330574,,,006,mav,60.1528810769,prodShadow,2015_Aug_09_2102,midd,
target,keke,stim/keke.wav,1,35,85,29,,,space,1.16761207581,,,006,mav,60.1528810769,prodShadow,2015_Aug_09_2102,midd,
target,guku,stim/guku.wav,1,36,86,26,,,space,1.4973218441,,,006,mav,60.1528810769,prodShadow,2015_Aug_09_2102,midd,
pname,gota,stim/gota.wav,1,37,87,25,,,space,1.39865994453,,,006,mav,60.1528810769,prodShadow,2015_Aug_09_2102,midd,
target,kiki,stim/kiki.wav,1,38,88,30,,,space,1.29929304123,,,006,mav,60.1528810769,prodShadow,2015_Aug_09_2102,midd,
target,deke,stim/deke.wav,1,39,89,13,,,space,1.44941091537,,,006,mav,60.1528810769,prodShadow,2015_Aug_09_2102,midd,
target,tuku,stim/tuku.wav,1,40,90,48,,,space,1.38328194618,,,006,mav,60.1528810769,prodShadow,2015_Aug_09_2102,midd,
target,goko,stim/goko.wav,1,41,91,24,,,space,1.41691994667,,,006,mav,60.1528810769,prodShadow,2015_Aug_09_2102,midd,
distractor,apa,stim/apa.wav,1,42,92,1,,,space,1.23383378983,,,006,mav,60.1528810769,prodShadow,2015_Aug_09_2102,midd,
target,boko,stim/boko.wav,1,43,93,6,,,space,1.3171851635,,,006,mav,60.1528810769,prodShadow,2015_Aug_09_2102,midd,
target,biki,stim/biki.wav,1,44,94,5,,,space,1.36864614487,,,006,mav,60.1528810769,prodShadow,2015_Aug_09_2102,midd,
distractor,uta,stim/uta.wav,1,45,95,49,,,space,1.18562316895,,,006,mav,60.1528810769,prodShadow,2015_Aug_09_2102,midd,
target,geke,stim/geke.wav,1,46,96,22,,,space,1.23442411423,,,006,mav,60.1528810769,prodShadow,2015_Aug_09_2102,midd,
pname,topo,stim/topo.wav,1,47,97,46,,,space,1.03355908394,,,006,mav,60.1528810769,prodShadow,2015_Aug_09_2102,midd,
target,teke,stim/teke.wav,1,48,98,44,,,space,1.0685839653,,,006,mav,60.1528810769,prodShadow,2015_Aug_09_2102,midd,
distractor,oba,stim/oba.wav,1,49,99,33,,,space,1.21803808212,,,006,mav,60.1528810769,prodShadow,2015_Aug_09_2102,midd,
pname,dado,stim/dado.wav,2,0,100,11,,,space,1.21724820137,,,006,mav,60.1528810769,prodShadow,2015_Aug_09_2102,midd,
target,poko,stim/poko.wav,2,1,101,39,,,space,0.917639017105,,,006,mav,60.1528810769,prodShadow,2015_Aug_09_2102,midd,
distractor,ita,stim/ita.wav,2,2,102,27,,,space,1.10020589828,,,006,mav,60.1528810769,prodShadow,2015_Aug_09_2102,midd,
target,peke,stim/peke.wav,2,3,103,37,,,space,1.06787610054,,,006,mav,60.1528810769,prodShadow,2015_Aug_09_2102,midd,
target,boko,stim/boko.wav,2,4,104,6,,,space,1.26834392548,,,006,mav,60.1528810769,prodShadow,2015_Aug_09_2102,midd,
target,tiki,stim/tiki.wav,2,5,105,45,,,space,1.08337712288,,,006,mav,60.1528810769,prodShadow,2015_Aug_09_2102,midd,
pname,bola,stim/bola.wav,2,6,106,7,,,space,1.36653900146,,,006,mav,60.1528810769,prodShadow,2015_Aug_09_2102,midd,
target,biki,stim/biki.wav,2,7,107,5,,,space,1.38422298431,,,006,mav,60.1528810769,prodShadow,2015_Aug_09_2102,midd,
distractor,oka,stim/oka.wav,2,8,108,34,,,space,1.45123910904,,,006,mav,60.1528810769,prodShadow,2015_Aug_09_2102,midd,
pname,topo,stim/topo.wav,2,9,109,46,,,space,1.03389596939,,,006,mav,60.1528810769,prodShadow,2015_Aug_09_2102,midd,
target,beke,stim/beke.wav,2,10,110,4,,,space,1.45190310478,,,006,mav,60.1528810769,prodShadow,2015_Aug_09_2102,midd,
distractor,eda,stim/eda.wav,2,11,111,18,,,space,1.28446602821,,,006,mav,60.1528810769,prodShadow,2015_Aug_09_2102,midd,
pname,polo,stim/polo.wav,2,12,112,40,,,space,1.31686115265,,,006,mav,60.1528810769,prodShadow,2015_Aug_09_2102,midd,
target,duku,stim/duku.wav,2,13,113,17,,,space,1.30118489265,,,006,mav,60.1528810769,prodShadow,2015_Aug_09_2102,midd,
target,toko,stim/toko.wav,2,14,114,47,,,space,1.23415780067,,,006,mav,60.1528810769,prodShadow,2015_Aug_09_2102,midd,
target,diki,stim/diki.wav,2,15,115,14,,,space,1.15018796921,,,006,mav,60.1528810769,prodShadow,2015_Aug_09_2102,midd,
distractor,apa,stim/apa.wav,2,16,116,1,,,space,1.05114984512,,,006,mav,60.1528810769,prodShadow,2015_Aug_09_2102,midd,
pname,bala,stim/bala.wav,2,17,117,3,,,space,1.3006169796,,,006,mav,60.1528810769,prodShadow,2015_Aug_09_2102,midd,
target,koko,stim/koko.wav,2,18,118,31,,,space,1.25089597702,,,006,mav,60.1528810769,prodShadow,2015_Aug_09_2102,midd,
target,geke,stim/geke.wav,2,19,119,22,,,space,1.33513903618,,,006,mav,60.1528810769,prodShadow,2015_Aug_09_2102,midd,
target,guku,stim/guku.wav,2,20,120,26,,,space,1.40091395378,,,006,mav,60.1528810769,prodShadow,2015_Aug_09_2102,midd,
target,giki,stim/giki.wav,2,21,121,23,,,space,1.21791005135,,,006,mav,60.1528810769,prodShadow,2015_Aug_09_2102,midd,
pname,palo,stim/palo.wav,2,22,122,36,,,space,1.20044803619,,,006,mav,60.1528810769,prodShadow,2015_Aug_09_2102,midd,
distractor,ada,stim/ada.wav,2,23,123,0,,,space,1.18453812599,,,006,mav,60.1528810769,prodShadow,2015_Aug_09_2102,midd,
target,puku,stim/puku.wav,2,24,124,41,,,space,1.23460078239,,,006,mav,60.1528810769,prodShadow,2015_Aug_09_2102,midd,
target,deke,stim/deke.wav,2,25,125,13,,,space,1.48362708092,,,006,mav,60.1528810769,prodShadow,2015_Aug_09_2102,midd,
target,daka,stim/daka.wav,2,26,126,12,,,space,1.20079016685,,,006,mav,60.1528810769,prodShadow,2015_Aug_09_2102,midd,
pname,dodo,stim/dodo.wav,2,27,127,15,,,space,1.18511199951,,,006,mav,60.1528810769,prodShadow,2015_Aug_09_2102,midd,
target,baka,stim/baka.wav,2,28,128,2,,,space,1.30032706261,,,006,mav,60.1528810769,prodShadow,2015_Aug_09_2102,midd,
target,teke,stim/teke.wav,2,29,129,44,,,space,1.1686000824,,,006,mav,60.1528810769,prodShadow,2015_Aug_09_2102,midd,
pname,coco,stim/coco.wav,2,30,130,10,,,space,1.28359985352,,,006,mav,60.1528810769,prodShadow,2015_Aug_09_2102,midd,
distractor,uta,stim/uta.wav,2,31,131,49,,,space,1.05036711693,,,006,mav,60.1528810769,prodShadow,2015_Aug_09_2102,midd,
target,piki,stim/piki.wav,2,32,132,38,,,space,1.01690006256,,,006,mav,60.1528810769,prodShadow,2015_Aug_09_2102,midd,
target,paka,stim/paka.wav,2,33,133,35,,,space,1.01832795143,,,006,mav,60.1528810769,prodShadow,2015_Aug_09_2102,midd,
pname,gato,stim/gato.wav,2,34,134,21,,,space,1.45044803619,,,006,mav,60.1528810769,prodShadow,2015_Aug_09_2102,midd,
target,kuku,stim/kuku.wav,2,35,135,32,,,space,1.26798605919,,,006,mav,60.1528810769,prodShadow,2015_Aug_09_2102,midd,
pname,taco,stim/taco.wav,2,36,136,42,,,space,1.23452186584,,,006,mav,60.1528810769,prodShadow,2015_Aug_09_2102,midd,
target,buku,stim/buku.wav,2,37,137,8,,,space,1.33413100243,,,006,mav,60.1528810769,prodShadow,2015_Aug_09_2102,midd,
target,doko,stim/doko.wav,2,38,138,16,,,space,1.36793923378,,,006,mav,60.1528810769,prodShadow,2015_Aug_09_2102,midd,
target,kiki,stim/kiki.wav,2,39,139,30,,,space,1.21688103676,,,006,mav,60.1528810769,prodShadow,2015_Aug_09_2102,midd,
pname,gota,stim/gota.wav,2,40,140,25,,,space,1.43438696861,,,006,mav,60.1528810769,prodShadow,2015_Aug_09_2102,midd,
distractor,epa,stim/epa.wav,2,41,141,19,,,space,1.08464312553,,,006,mav,60.1528810769,prodShadow,2015_Aug_09_2102,midd,
target,kaka,stim/kaka.wav,2,42,142,28,,,space,1.2670211792,,,006,mav,60.1528810769,prodShadow,2015_Aug_09_2102,midd,
target,tuku,stim/tuku.wav,2,43,143,48,,,space,1.28427886963,,,006,mav,60.1528810769,prodShadow,2015_Aug_09_2102,midd,
target,gaka,stim/gaka.wav,2,44,144,20,,,space,1.35085391998,,,006,mav,60.1528810769,prodShadow,2015_Aug_09_2102,midd,
target,goko,stim/goko.wav,2,45,145,24,,,space,1.33355998993,,,006,mav,60.1528810769,prodShadow,2015_Aug_09_2102,midd,
target,taka,stim/taka.wav,2,46,146,43,,,space,1.26759982109,,,006,mav,60.1528810769,prodShadow,2015_Aug_09_2102,midd,
target,keke,stim/keke.wav,2,47,147,29,,,space,1.2679169178,,,006,mav,60.1528810769,prodShadow,2015_Aug_09_2102,midd,
distractor,oba,stim/oba.wav,2,48,148,33,,,space,1.25104284286,,,006,mav,60.1528810769,prodShadow,2015_Aug_09_2102,midd,
pname,caca,stim/caca.wav,2,49,149,9,,,space,1.21776103973,,,006,mav,60.1528810769,prodShadow,2015_Aug_09_2102,midd,
,,,,,,,,,,,space,21.1349301338,006,mav,60.1528810769,prodShadow,2015_Aug_09_2102,midd,
