status,text,stim,trials.thisRepN,trials.thisTrialN,trials.thisN,trials.thisIndex,key_resp_3.keys,key_resp_3.rt,key_resp_2.keys,key_resp_2.rt,key_resp_4.keys,key_resp_4.rt,session,participant,frameRate,expName,date,condition,
,,,,,,,space,0.500591993332,,,,,004,jal,60.0654456822,prodShadow,2015_Jul_26_1322,midd,
target,paka,stim/paka.wav,0,0,0,35,,,space,1.26740193367,,,004,jal,60.0654456822,prodShadow,2015_Jul_26_1322,midd,
target,puku,stim/puku.wav,0,1,1,41,,,space,1.08406400681,,,004,jal,60.0654456822,prodShadow,2015_Jul_26_1322,midd,
pname,gato,stim/gato.wav,0,2,2,21,,,space,1.55107808113,,,004,jal,60.0654456822,prodShadow,2015_Jul_26_1322,midd,
pname,caca,stim/caca.wav,0,3,3,9,,,space,1.41739010811,,,004,jal,60.0654456822,prodShadow,2015_Jul_26_1322,midd,
target,kiki,stim/kiki.wav,0,4,4,30,,,space,1.40100717545,,,004,jal,60.0654456822,prodShadow,2015_Jul_26_1322,midd,
target,keke,stim/keke.wav,0,5,5,29,,,space,1.41718101501,,,004,jal,60.0654456822,prodShadow,2015_Jul_26_1322,midd,
distractor,eda,stim/eda.wav,0,6,6,18,,,space,1.41749405861,,,004,jal,60.0654456822,prodShadow,2015_Jul_26_1322,midd,
target,tuku,stim/tuku.wav,0,7,7,48,,,space,1.10072016716,,,004,jal,60.0654456822,prodShadow,2015_Jul_26_1322,midd,
pname,polo,stim/polo.wav,0,8,8,40,,,space,1.01716399193,,,004,jal,60.0654456822,prodShadow,2015_Jul_26_1322,midd,
target,goko,stim/goko.wav,0,9,9,24,,,space,1.08416891098,,,004,jal,60.0654456822,prodShadow,2015_Jul_26_1322,midd,
target,poko,stim/poko.wav,0,10,10,39,,,space,0.900947093964,,,004,jal,60.0654456822,prodShadow,2015_Jul_26_1322,midd,
target,boko,stim/boko.wav,0,11,11,6,,,space,1.26762294769,,,004,jal,60.0654456822,prodShadow,2015_Jul_26_1322,midd,
pname,taco,stim/taco.wav,0,12,12,42,,,space,1.13440799713,,,004,jal,60.0654456822,prodShadow,2015_Jul_26_1322,midd,
target,buku,stim/buku.wav,0,13,13,8,,,space,1.03358817101,,,004,jal,60.0654456822,prodShadow,2015_Jul_26_1322,midd,
target,piki,stim/piki.wav,0,14,14,38,,,space,0.983973026276,,,004,jal,60.0654456822,prodShadow,2015_Jul_26_1322,midd,
target,daka,stim/daka.wav,0,15,15,12,,,space,1.43410396576,,,004,jal,60.0654456822,prodShadow,2015_Jul_26_1322,midd,
pname,coco,stim/coco.wav,0,16,16,10,,,space,1.38401985168,,,004,jal,60.0654456822,prodShadow,2015_Jul_26_1322,midd,
target,beke,stim/beke.wav,0,17,17,4,,,space,1.30111193657,,,004,jal,60.0654456822,prodShadow,2015_Jul_26_1322,midd,
pname,bola,stim/bola.wav,0,18,18,7,,,space,1.16745591164,,,004,jal,60.0654456822,prodShadow,2015_Jul_26_1322,midd,
target,geke,stim/geke.wav,0,19,19,22,,,space,0.884166955948,,,004,jal,60.0654456822,prodShadow,2015_Jul_26_1322,midd,
target,duku,stim/duku.wav,0,20,20,17,,,space,0.850435018539,,,004,jal,60.0654456822,prodShadow,2015_Jul_26_1322,midd,
target,toko,stim/toko.wav,0,21,21,47,,,space,1.00072002411,,,004,jal,60.0654456822,prodShadow,2015_Jul_26_1322,midd,
target,deke,stim/deke.wav,0,22,22,13,,,space,1.23403191566,,,004,jal,60.0654456822,prodShadow,2015_Jul_26_1322,midd,
target,guku,stim/guku.wav,0,23,23,26,,,space,0.951155900955,,,004,jal,60.0654456822,prodShadow,2015_Jul_26_1322,midd,
pname,dado,stim/dado.wav,0,24,24,11,,,space,0.950797796249,,,004,jal,60.0654456822,prodShadow,2015_Jul_26_1322,midd,
target,tiki,stim/tiki.wav,0,25,25,45,,,space,0.86751294136,,,004,jal,60.0654456822,prodShadow,2015_Jul_26_1322,midd,
target,diki,stim/diki.wav,0,26,26,14,,,space,0.917326927185,,,004,jal,60.0654456822,prodShadow,2015_Jul_26_1322,midd,
target,gaka,stim/gaka.wav,0,27,27,20,,,space,0.183451890945,,,004,jal,60.0654456822,prodShadow,2015_Jul_26_1322,midd,
distractor,oba,stim/oba.wav,0,28,28,33,,,space,1.55119204521,,,004,jal,60.0654456822,prodShadow,2015_Jul_26_1322,midd,
target,doko,stim/doko.wav,0,29,29,16,,,space,1.28375601768,,,004,jal,60.0654456822,prodShadow,2015_Jul_26_1322,midd,
target,biki,stim/biki.wav,0,30,30,5,,,space,1.26776003838,,,004,jal,60.0654456822,prodShadow,2015_Jul_26_1322,midd,
pname,palo,stim/palo.wav,0,31,31,36,,,space,0.917222976685,,,004,jal,60.0654456822,prodShadow,2015_Jul_26_1322,midd,
pname,topo,stim/topo.wav,0,32,32,46,,,space,0.900527954102,,,004,jal,60.0654456822,prodShadow,2015_Jul_26_1322,midd,
target,giki,stim/giki.wav,0,33,33,23,,,space,0.966594934464,,,004,jal,60.0654456822,prodShadow,2015_Jul_26_1322,midd,
target,kaka,stim/kaka.wav,0,34,34,28,,,space,1.20073699951,,,004,jal,60.0654456822,prodShadow,2015_Jul_26_1322,midd,
target,teke,stim/teke.wav,0,35,35,44,,,space,1.18510699272,,,004,jal,60.0654456822,prodShadow,2015_Jul_26_1322,midd,
target,kuku,stim/kuku.wav,0,36,36,32,,,space,1.06753611565,,,004,jal,60.0654456822,prodShadow,2015_Jul_26_1322,midd,
pname,bala,stim/bala.wav,0,37,37,3,,,space,0.984647035599,,,004,jal,60.0654456822,prodShadow,2015_Jul_26_1322,midd,
target,koko,stim/koko.wav,0,38,38,31,,,space,0.916579008102,,,004,jal,60.0654456822,prodShadow,2015_Jul_26_1322,midd,
distractor,ada,stim/ada.wav,0,39,39,0,,,space,0.884588956833,,,004,jal,60.0654456822,prodShadow,2015_Jul_26_1322,midd,
target,baka,stim/baka.wav,0,40,40,2,,,space,1.28327298164,,,004,jal,60.0654456822,prodShadow,2015_Jul_26_1322,midd,
target,peke,stim/peke.wav,0,41,41,37,,,space,0.85035610199,,,004,jal,60.0654456822,prodShadow,2015_Jul_26_1322,midd,
distractor,apa,stim/apa.wav,0,42,42,1,,,space,1.00036597252,,,004,jal,60.0654456822,prodShadow,2015_Jul_26_1322,midd,
distractor,epa,stim/epa.wav,0,43,43,19,,,space,0.883582115173,,,004,jal,60.0654456822,prodShadow,2015_Jul_26_1322,midd,
pname,dodo,stim/dodo.wav,0,44,44,15,,,space,1.03340506554,,,004,jal,60.0654456822,prodShadow,2015_Jul_26_1322,midd,
distractor,oka,stim/oka.wav,0,45,45,34,,,space,1.18375015259,,,004,jal,60.0654456822,prodShadow,2015_Jul_26_1322,midd,
distractor,ita,stim/ita.wav,0,46,46,27,,,space,0.884019851685,,,004,jal,60.0654456822,prodShadow,2015_Jul_26_1322,midd,
distractor,uta,stim/uta.wav,0,47,47,49,,,space,0.767008066177,,,004,jal,60.0654456822,prodShadow,2015_Jul_26_1322,midd,
pname,gota,stim/gota.wav,0,48,48,25,,,space,1.2168970108,,,004,jal,60.0654456822,prodShadow,2015_Jul_26_1322,midd,
target,taka,stim/taka.wav,0,49,49,43,,,space,1.06744718552,,,004,jal,60.0654456822,prodShadow,2015_Jul_26_1322,midd,
pname,gato,stim/gato.wav,1,0,50,21,,,space,1.20039701462,,,004,jal,60.0654456822,prodShadow,2015_Jul_26_1322,midd,
target,tiki,stim/tiki.wav,1,1,51,45,,,space,1.03487205505,,,004,jal,60.0654456822,prodShadow,2015_Jul_26_1322,midd,
target,goko,stim/goko.wav,1,2,52,24,,,space,0.867496967316,,,004,jal,60.0654456822,prodShadow,2015_Jul_26_1322,midd,
target,geke,stim/geke.wav,1,3,53,22,,,space,1.05048799515,,,004,jal,60.0654456822,prodShadow,2015_Jul_26_1322,midd,
target,guku,stim/guku.wav,1,4,54,26,,,space,1.18462586403,,,004,jal,60.0654456822,prodShadow,2015_Jul_26_1322,midd,
target,koko,stim/koko.wav,1,5,55,31,,,space,1.01648783684,,,004,jal,60.0654456822,prodShadow,2015_Jul_26_1322,midd,
target,kiki,stim/kiki.wav,1,6,56,30,,,space,1.01740884781,,,004,jal,60.0654456822,prodShadow,2015_Jul_26_1322,midd,
target,buku,stim/buku.wav,1,7,57,8,,,space,1.08347296715,,,004,jal,60.0654456822,prodShadow,2015_Jul_26_1322,midd,
distractor,oba,stim/oba.wav,1,8,58,33,,,space,0.933872938156,,,004,jal,60.0654456822,prodShadow,2015_Jul_26_1322,midd,
target,biki,stim/biki.wav,1,9,59,5,,,space,1.25085401535,,,004,jal,60.0654456822,prodShadow,2015_Jul_26_1322,midd,
target,teke,stim/teke.wav,1,10,60,44,,,space,0.900723218918,,,004,jal,60.0654456822,prodShadow,2015_Jul_26_1322,midd,
target,duku,stim/duku.wav,1,11,61,17,,,space,1.0185379982,,,004,jal,60.0654456822,prodShadow,2015_Jul_26_1322,midd,
pname,palo,stim/palo.wav,1,12,62,36,,,space,0.900155067444,,,004,jal,60.0654456822,prodShadow,2015_Jul_26_1322,midd,
pname,dado,stim/dado.wav,1,13,63,11,,,space,1.13338708878,,,004,jal,60.0654456822,prodShadow,2015_Jul_26_1322,midd,
pname,bola,stim/bola.wav,1,14,64,7,,,space,1.2846968174,,,004,jal,60.0654456822,prodShadow,2015_Jul_26_1322,midd,
pname,caca,stim/caca.wav,1,15,65,9,,,space,1.23475003242,,,004,jal,60.0654456822,prodShadow,2015_Jul_26_1322,midd,
pname,coco,stim/coco.wav,1,16,66,10,,,space,1.0832669735,,,004,jal,60.0654456822,prodShadow,2015_Jul_26_1322,midd,
target,piki,stim/piki.wav,1,17,67,38,,,space,0.783671140671,,,004,jal,60.0654456822,prodShadow,2015_Jul_26_1322,midd,
target,doko,stim/doko.wav,1,18,68,16,,,space,1.10101890564,,,004,jal,60.0654456822,prodShadow,2015_Jul_26_1322,midd,
target,daka,stim/daka.wav,1,19,69,12,,,space,1.00140285492,,,004,jal,60.0654456822,prodShadow,2015_Jul_26_1322,midd,
target,taka,stim/taka.wav,1,20,70,43,,,space,1.1350209713,,,004,jal,60.0654456822,prodShadow,2015_Jul_26_1322,midd,
target,poko,stim/poko.wav,1,21,71,39,,,space,0.850769042969,,,004,jal,60.0654456822,prodShadow,2015_Jul_26_1322,midd,
distractor,eda,stim/eda.wav,1,22,72,18,,,space,0.73398900032,,,004,jal,60.0654456822,prodShadow,2015_Jul_26_1322,midd,
distractor,apa,stim/apa.wav,1,23,73,1,,,space,0.649984836578,,,004,jal,60.0654456822,prodShadow,2015_Jul_26_1322,midd,
target,boko,stim/boko.wav,1,24,74,6,,,space,1.1839928627,,,004,jal,60.0654456822,prodShadow,2015_Jul_26_1322,midd,
target,deke,stim/deke.wav,1,25,75,13,,,space,1.00043606758,,,004,jal,60.0654456822,prodShadow,2015_Jul_26_1322,midd,
pname,polo,stim/polo.wav,1,26,76,40,,,space,0.750720024109,,,004,jal,60.0654456822,prodShadow,2015_Jul_26_1322,midd,
pname,topo,stim/topo.wav,1,27,77,46,,,space,0.884799957275,,,004,jal,60.0654456822,prodShadow,2015_Jul_26_1322,midd,
distractor,uta,stim/uta.wav,1,28,78,49,,,space,0.835070848465,,,004,jal,60.0654456822,prodShadow,2015_Jul_26_1322,midd,
target,keke,stim/keke.wav,1,29,79,29,,,space,0.934108018875,,,004,jal,60.0654456822,prodShadow,2015_Jul_26_1322,midd,
target,peke,stim/peke.wav,1,30,80,37,,,space,0.98407292366,,,004,jal,60.0654456822,prodShadow,2015_Jul_26_1322,midd,
distractor,ada,stim/ada.wav,1,31,81,0,,,space,0.901755094528,,,004,jal,60.0654456822,prodShadow,2015_Jul_26_1322,midd,
target,giki,stim/giki.wav,1,32,82,23,,,space,0.984754085541,,,004,jal,60.0654456822,prodShadow,2015_Jul_26_1322,midd,
distractor,epa,stim/epa.wav,1,33,83,19,,,space,0.133507966995,,,004,jal,60.0654456822,prodShadow,2015_Jul_26_1322,midd,
target,tuku,stim/tuku.wav,1,34,84,48,,,space,1.1675491333,,,004,jal,60.0654456822,prodShadow,2015_Jul_26_1322,midd,
target,kaka,stim/kaka.wav,1,35,85,28,,,space,0.816484928131,,,004,jal,60.0654456822,prodShadow,2015_Jul_26_1322,midd,
target,beke,stim/beke.wav,1,36,86,4,,,space,1.48500299454,,,004,jal,60.0654456822,prodShadow,2015_Jul_26_1322,midd,
distractor,oka,stim/oka.wav,1,37,87,34,,,space,1.31635499001,,,004,jal,60.0654456822,prodShadow,2015_Jul_26_1322,midd,
pname,taco,stim/taco.wav,1,38,88,42,,,space,1.13449192047,,,004,jal,60.0654456822,prodShadow,2015_Jul_26_1322,midd,
distractor,ita,stim/ita.wav,1,39,89,27,,,space,0.883213996887,,,004,jal,60.0654456822,prodShadow,2015_Jul_26_1322,midd,
target,baka,stim/baka.wav,1,40,90,2,,,space,2.5341770649,,,004,jal,60.0654456822,prodShadow,2015_Jul_26_1322,midd,
target,toko,stim/toko.wav,1,41,91,47,,,space,0.883718013763,,,004,jal,60.0654456822,prodShadow,2015_Jul_26_1322,midd,
target,puku,stim/puku.wav,1,42,92,41,,,space,1.31716489792,,,004,jal,60.0654456822,prodShadow,2015_Jul_26_1322,midd,
target,paka,stim/paka.wav,1,43,93,35,,,space,1.00032114983,,,004,jal,60.0654456822,prodShadow,2015_Jul_26_1322,midd,
pname,bala,stim/bala.wav,1,44,94,3,,,space,0.967386007309,,,004,jal,60.0654456822,prodShadow,2015_Jul_26_1322,midd,
target,gaka,stim/gaka.wav,1,45,95,20,,,space,0.850899934769,,,004,jal,60.0654456822,prodShadow,2015_Jul_26_1322,midd,
pname,dodo,stim/dodo.wav,1,46,96,15,,,space,0.967036962509,,,004,jal,60.0654456822,prodShadow,2015_Jul_26_1322,midd,
target,diki,stim/diki.wav,1,47,97,14,,,space,0.967850923538,,,004,jal,60.0654456822,prodShadow,2015_Jul_26_1322,midd,
pname,gota,stim/gota.wav,1,48,98,25,,,space,1.19991898537,,,004,jal,60.0654456822,prodShadow,2015_Jul_26_1322,midd,
target,kuku,stim/kuku.wav,1,49,99,32,,,space,0.851039171219,,,004,jal,60.0654456822,prodShadow,2015_Jul_26_1322,midd,
target,keke,stim/keke.wav,2,0,100,29,,,space,1.03421020508,,,004,jal,60.0654456822,prodShadow,2015_Jul_26_1322,midd,
target,koko,stim/koko.wav,2,1,101,31,,,space,0.967427015305,,,004,jal,60.0654456822,prodShadow,2015_Jul_26_1322,midd,
pname,palo,stim/palo.wav,2,2,102,36,,,space,0.834571123123,,,004,jal,60.0654456822,prodShadow,2015_Jul_26_1322,midd,
target,boko,stim/boko.wav,2,3,103,6,,,space,0.983247041702,,,004,jal,60.0654456822,prodShadow,2015_Jul_26_1322,midd,
pname,dodo,stim/dodo.wav,2,4,104,15,,,space,1.05128097534,,,004,jal,60.0654456822,prodShadow,2015_Jul_26_1322,midd,
target,toko,stim/toko.wav,2,5,105,47,,,space,0.900800943375,,,004,jal,60.0654456822,prodShadow,2015_Jul_26_1322,midd,
target,geke,stim/geke.wav,2,6,106,22,,,space,0.900197982788,,,004,jal,60.0654456822,prodShadow,2015_Jul_26_1322,midd,
target,poko,stim/poko.wav,2,7,107,39,,,space,0.884068965912,,,004,jal,60.0654456822,prodShadow,2015_Jul_26_1322,midd,
target,peke,stim/peke.wav,2,8,108,37,,,space,0.817221879959,,,004,jal,60.0654456822,prodShadow,2015_Jul_26_1322,midd,
pname,polo,stim/polo.wav,2,9,109,40,,,space,0.83478307724,,,004,jal,60.0654456822,prodShadow,2015_Jul_26_1322,midd,
target,doko,stim/doko.wav,2,10,110,16,,,space,1.23389387131,,,004,jal,60.0654456822,prodShadow,2015_Jul_26_1322,midd,
pname,caca,stim/caca.wav,2,11,111,9,,,space,0.967591047287,,,004,jal,60.0654456822,prodShadow,2015_Jul_26_1322,midd,
target,duku,stim/duku.wav,2,12,112,17,,,space,1.16726303101,,,004,jal,60.0654456822,prodShadow,2015_Jul_26_1322,midd,
target,teke,stim/teke.wav,2,13,113,44,,,space,1.38368296623,,,004,jal,60.0654456822,prodShadow,2015_Jul_26_1322,midd,
target,kuku,stim/kuku.wav,2,14,114,32,,,space,0.934495925903,,,004,jal,60.0654456822,prodShadow,2015_Jul_26_1322,midd,
target,kaka,stim/kaka.wav,2,15,115,28,,,space,0.683888912201,,,004,jal,60.0654456822,prodShadow,2015_Jul_26_1322,midd,
target,guku,stim/guku.wav,2,16,116,26,,,space,1.21749186516,,,004,jal,60.0654456822,prodShadow,2015_Jul_26_1322,midd,
target,paka,stim/paka.wav,2,17,117,35,,,space,0.867016077042,,,004,jal,60.0654456822,prodShadow,2015_Jul_26_1322,midd,
distractor,uta,stim/uta.wav,2,18,118,49,,,space,0.851199865341,,,004,jal,60.0654456822,prodShadow,2015_Jul_26_1322,midd,
target,kiki,stim/kiki.wav,2,19,119,30,,,space,0.834197998047,,,004,jal,60.0654456822,prodShadow,2015_Jul_26_1322,midd,
distractor,ita,stim/ita.wav,2,20,120,27,,,space,0.75084900856,,,004,jal,60.0654456822,prodShadow,2015_Jul_26_1322,midd,
distractor,oka,stim/oka.wav,2,21,121,34,,,space,0.968296051025,,,004,jal,60.0654456822,prodShadow,2015_Jul_26_1322,midd,
target,daka,stim/daka.wav,2,22,122,12,,,space,0.934638023376,,,004,jal,60.0654456822,prodShadow,2015_Jul_26_1322,midd,
target,goko,stim/goko.wav,2,23,123,24,,,space,0.968182086945,,,004,jal,60.0654456822,prodShadow,2015_Jul_26_1322,midd,
target,puku,stim/puku.wav,2,24,124,41,,,space,0.817378997803,,,004,jal,60.0654456822,prodShadow,2015_Jul_26_1322,midd,
target,baka,stim/baka.wav,2,25,125,2,,,space,0.800574064255,,,004,jal,60.0654456822,prodShadow,2015_Jul_26_1322,midd,
pname,gato,stim/gato.wav,2,26,126,21,,,space,1.26728105545,,,004,jal,60.0654456822,prodShadow,2015_Jul_26_1322,midd,
target,biki,stim/biki.wav,2,27,127,5,,,space,1.03382492065,,,004,jal,60.0654456822,prodShadow,2015_Jul_26_1322,midd,
pname,coco,stim/coco.wav,2,28,128,10,,,space,1.3840379715,,,004,jal,60.0654456822,prodShadow,2015_Jul_26_1322,midd,
target,giki,stim/giki.wav,2,29,129,23,,,space,1.40102219582,,,004,jal,60.0654456822,prodShadow,2015_Jul_26_1322,midd,
pname,topo,stim/topo.wav,2,30,130,46,,,space,0.900359869003,,,004,jal,60.0654456822,prodShadow,2015_Jul_26_1322,midd,
target,tiki,stim/tiki.wav,2,31,131,45,,,space,1.71437001228,,,004,jal,60.0654456822,prodShadow,2015_Jul_26_1322,midd,
pname,bola,stim/bola.wav,2,32,132,7,,,space,1.45059895515,,,004,jal,60.0654456822,prodShadow,2015_Jul_26_1322,midd,
pname,bala,stim/bala.wav,2,33,133,3,,,space,1.33194994926,,,004,jal,60.0654456822,prodShadow,2015_Jul_26_1322,midd,
target,taka,stim/taka.wav,2,34,134,43,,,space,1.26826000214,,,004,jal,60.0654456822,prodShadow,2015_Jul_26_1322,midd,
target,beke,stim/beke.wav,2,35,135,4,,,space,1.30093407631,,,004,jal,60.0654456822,prodShadow,2015_Jul_26_1322,midd,
target,deke,stim/deke.wav,2,36,136,13,,,space,1.36820602417,,,004,jal,60.0654456822,prodShadow,2015_Jul_26_1322,midd,
target,tuku,stim/tuku.wav,2,37,137,48,,,space,1.03430294991,,,004,jal,60.0654456822,prodShadow,2015_Jul_26_1322,midd,
pname,gota,stim/gota.wav,2,38,138,25,,,space,1.01991605759,,,004,jal,60.0654456822,prodShadow,2015_Jul_26_1322,midd,
target,diki,stim/diki.wav,2,39,139,14,,,space,1.0183391571,,,004,jal,60.0654456822,prodShadow,2015_Jul_26_1322,midd,
distractor,epa,stim/epa.wav,2,40,140,19,,,space,0.867397069931,,,004,jal,60.0654456822,prodShadow,2015_Jul_26_1322,midd,
distractor,ada,stim/ada.wav,2,41,141,0,,,space,0.868325948715,,,004,jal,60.0654456822,prodShadow,2015_Jul_26_1322,midd,
pname,dado,stim/dado.wav,2,42,142,11,,,space,1.01837301254,,,004,jal,60.0654456822,prodShadow,2015_Jul_26_1322,midd,
target,piki,stim/piki.wav,2,43,143,38,,,space,0.817303180695,,,004,jal,60.0654456822,prodShadow,2015_Jul_26_1322,midd,
pname,taco,stim/taco.wav,2,44,144,42,,,space,1.21601295471,,,004,jal,60.0654456822,prodShadow,2015_Jul_26_1322,midd,
target,gaka,stim/gaka.wav,2,45,145,20,,,space,0.931986093521,,,004,jal,60.0654456822,prodShadow,2015_Jul_26_1322,midd,
distractor,oba,stim/oba.wav,2,46,146,33,,,space,0.917200088501,,,004,jal,60.0654456822,prodShadow,2015_Jul_26_1322,midd,
distractor,eda,stim/eda.wav,2,47,147,18,,,space,1.36677312851,,,004,jal,60.0654456822,prodShadow,2015_Jul_26_1322,midd,
target,buku,stim/buku.wav,2,48,148,8,,,space,1.00472402573,,,004,jal,60.0654456822,prodShadow,2015_Jul_26_1322,midd,
distractor,apa,stim/apa.wav,2,49,149,1,,,space,1.06870985031,,,004,jal,60.0654456822,prodShadow,2015_Jul_26_1322,midd,
,,,,,,,,,,,space,43.3539230824,004,jal,60.0654456822,prodShadow,2015_Jul_26_1322,midd,
