status,text,stim,trials.thisRepN,trials.thisTrialN,trials.thisN,trials.thisIndex,key_resp_3.keys,key_resp_3.rt,key_resp_2.keys,key_resp_2.rt,key_resp_4.keys,key_resp_4.rt,session,participant,frameRate,expName,date,condition,
,,,,,,,space,1.73337697983,,,,,000,lmw,59.7761052576,prodShadow,2015_Jun_30_1520,midd,
pname,coco,stim/coco.wav,0,0,0,10,,,space,3.50127506256,,,000,lmw,59.7761052576,prodShadow,2015_Jun_30_1520,midd,
pname,gota,stim/gota.wav,0,1,1,25,,,space,2.73491716385,,,000,lmw,59.7761052576,prodShadow,2015_Jun_30_1520,midd,
target,biki,stim/biki.wav,0,2,2,5,,,space,2.834649086,,,000,lmw,59.7761052576,prodShadow,2015_Jun_30_1520,midd,
target,tuku,stim/tuku.wav,0,3,3,48,,,space,2.50017690659,,,000,lmw,59.7761052576,prodShadow,2015_Jun_30_1520,midd,
target,guku,stim/guku.wav,0,4,4,26,,,space,2.76759004593,,,000,lmw,59.7761052576,prodShadow,2015_Jun_30_1520,midd,
target,geke,stim/geke.wav,0,5,5,22,,,space,2.60089302063,,,000,lmw,59.7761052576,prodShadow,2015_Jun_30_1520,midd,
pname,gato,stim/gato.wav,0,6,6,21,,,space,2.60062098503,,,000,lmw,59.7761052576,prodShadow,2015_Jun_30_1520,midd,
target,koko,stim/koko.wav,0,7,7,31,,,space,2.70131492615,,,000,lmw,59.7761052576,prodShadow,2015_Jun_30_1520,midd,
distractor,oka,stim/oka.wav,0,8,8,34,,,space,2.41728997231,,,000,lmw,59.7761052576,prodShadow,2015_Jun_30_1520,midd,
target,gaka,stim/gaka.wav,0,9,9,20,,,space,2.51795911789,,,000,lmw,59.7761052576,prodShadow,2015_Jun_30_1520,midd,
target,kaka,stim/kaka.wav,0,10,10,28,,,space,2.28482818604,,,000,lmw,59.7761052576,prodShadow,2015_Jun_30_1520,midd,
pname,polo,stim/polo.wav,0,11,11,40,,,space,2.16754603386,,,000,lmw,59.7761052576,prodShadow,2015_Jun_30_1520,midd,
target,poko,stim/poko.wav,0,12,12,39,,,space,2.23431110382,,,000,lmw,59.7761052576,prodShadow,2015_Jun_30_1520,midd,
target,doko,stim/doko.wav,0,13,13,16,,,space,2.33459806442,,,000,lmw,59.7761052576,prodShadow,2015_Jun_30_1520,midd,
target,taka,stim/taka.wav,0,14,14,43,,,space,2.16729402542,,,000,lmw,59.7761052576,prodShadow,2015_Jun_30_1520,midd,
distractor,ita,stim/ita.wav,0,15,15,27,,,space,2.64988589287,,,000,lmw,59.7761052576,prodShadow,2015_Jun_30_1520,midd,
target,peke,stim/peke.wav,0,16,16,37,,,space,2.40071296692,,,000,lmw,59.7761052576,prodShadow,2015_Jun_30_1520,midd,
target,deke,stim/deke.wav,0,17,17,13,,,space,2.65093493462,,,000,lmw,59.7761052576,prodShadow,2015_Jun_30_1520,midd,
pname,palo,stim/palo.wav,0,18,18,36,,,space,2.20070791245,,,000,lmw,59.7761052576,prodShadow,2015_Jun_30_1520,midd,
pname,taco,stim/taco.wav,0,19,19,42,,,space,2.36683893204,,,000,lmw,59.7761052576,prodShadow,2015_Jun_30_1520,midd,
target,paka,stim/paka.wav,0,20,20,35,,,space,2.3007068634,,,000,lmw,59.7761052576,prodShadow,2015_Jun_30_1520,midd,
pname,dodo,stim/dodo.wav,0,21,21,15,,,space,2.38372421265,,,000,lmw,59.7761052576,prodShadow,2015_Jun_30_1520,midd,
target,kiki,stim/kiki.wav,0,22,22,30,,,space,2.5185611248,,,000,lmw,59.7761052576,prodShadow,2015_Jun_30_1520,midd,
distractor,eda,stim/eda.wav,0,23,23,18,,,space,2.40153598785,,,000,lmw,59.7761052576,prodShadow,2015_Jun_30_1520,midd,
target,baka,stim/baka.wav,0,24,24,2,,,space,2.86763095856,,,000,lmw,59.7761052576,prodShadow,2015_Jun_30_1520,midd,
distractor,epa,stim/epa.wav,0,25,25,19,,,space,2.06746196747,,,000,lmw,59.7761052576,prodShadow,2015_Jun_30_1520,midd,
target,giki,stim/giki.wav,0,26,26,23,,,space,2.450963974,,,000,lmw,59.7761052576,prodShadow,2015_Jun_30_1520,midd,
target,teke,stim/teke.wav,0,27,27,44,,,space,2.36767196655,,,000,lmw,59.7761052576,prodShadow,2015_Jun_30_1520,midd,
target,duku,stim/duku.wav,0,28,28,17,,,space,2.43403196335,,,000,lmw,59.7761052576,prodShadow,2015_Jun_30_1520,midd,
target,kuku,stim/kuku.wav,0,29,29,32,,,space,2.23458194733,,,000,lmw,59.7761052576,prodShadow,2015_Jun_30_1520,midd,
pname,topo,stim/topo.wav,0,30,30,46,,,space,2.31722903252,,,000,lmw,59.7761052576,prodShadow,2015_Jun_30_1520,midd,
distractor,ada,stim/ada.wav,0,31,31,0,,,space,2.1670589447,,,000,lmw,59.7761052576,prodShadow,2015_Jun_30_1520,midd,
pname,bala,stim/bala.wav,0,32,32,3,,,space,2.30200719833,,,000,lmw,59.7761052576,prodShadow,2015_Jun_30_1520,midd,
target,boko,stim/boko.wav,0,33,33,6,,,space,2.38407993317,,,000,lmw,59.7761052576,prodShadow,2015_Jun_30_1520,midd,
target,toko,stim/toko.wav,0,34,34,47,,,space,2.33462095261,,,000,lmw,59.7761052576,prodShadow,2015_Jun_30_1520,midd,
target,daka,stim/daka.wav,0,35,35,12,,,space,2.2842130661,,,000,lmw,59.7761052576,prodShadow,2015_Jun_30_1520,midd,
target,tiki,stim/tiki.wav,0,36,36,45,,,space,2.35128211975,,,000,lmw,59.7761052576,prodShadow,2015_Jun_30_1520,midd,
target,beke,stim/beke.wav,0,37,37,4,,,space,2.6180999279,,,000,lmw,59.7761052576,prodShadow,2015_Jun_30_1520,midd,
target,buku,stim/buku.wav,0,38,38,8,,,space,2.41867280006,,,000,lmw,59.7761052576,prodShadow,2015_Jun_30_1520,midd,
distractor,uta,stim/uta.wav,0,39,39,49,,,space,1.93458986282,,,000,lmw,59.7761052576,prodShadow,2015_Jun_30_1520,midd,
target,puku,stim/puku.wav,0,40,40,41,,,space,2.16754102707,,,000,lmw,59.7761052576,prodShadow,2015_Jun_30_1520,midd,
distractor,apa,stim/apa.wav,0,41,41,1,,,space,2.00061202049,,,000,lmw,59.7761052576,prodShadow,2015_Jun_30_1520,midd,
target,keke,stim/keke.wav,0,42,42,29,,,space,2.10051894188,,,000,lmw,59.7761052576,prodShadow,2015_Jun_30_1520,midd,
pname,caca,stim/caca.wav,0,43,43,9,,,space,2.11748409271,,,000,lmw,59.7761052576,prodShadow,2015_Jun_30_1520,midd,
distractor,oba,stim/oba.wav,0,44,44,33,,,space,2.28454113007,,,000,lmw,59.7761052576,prodShadow,2015_Jun_30_1520,midd,
target,diki,stim/diki.wav,0,45,45,14,,,space,1.90133619308,,,000,lmw,59.7761052576,prodShadow,2015_Jun_30_1520,midd,
pname,dado,stim/dado.wav,0,46,46,11,,,space,2.30179905891,,,000,lmw,59.7761052576,prodShadow,2015_Jun_30_1520,midd,
pname,bola,stim/bola.wav,0,47,47,7,,,space,2.44997906685,,,000,lmw,59.7761052576,prodShadow,2015_Jun_30_1520,midd,
target,goko,stim/goko.wav,0,48,48,24,,,space,2.50076699257,,,000,lmw,59.7761052576,prodShadow,2015_Jun_30_1520,midd,
target,piki,stim/piki.wav,0,49,49,38,,,space,2.15009307861,,,000,lmw,59.7761052576,prodShadow,2015_Jun_30_1520,midd,
target,taka,stim/taka.wav,1,0,50,43,,,space,2.3011469841,,,000,lmw,59.7761052576,prodShadow,2015_Jun_30_1520,midd,
target,doko,stim/doko.wav,1,1,51,16,,,space,2.30010104179,,,000,lmw,59.7761052576,prodShadow,2015_Jun_30_1520,midd,
pname,polo,stim/polo.wav,1,2,52,40,,,space,2.33389019966,,,000,lmw,59.7761052576,prodShadow,2015_Jun_30_1520,midd,
target,kuku,stim/kuku.wav,1,3,53,32,,,space,1.96774196625,,,000,lmw,59.7761052576,prodShadow,2015_Jun_30_1520,midd,
pname,dado,stim/dado.wav,1,4,54,11,,,space,2.90051603317,,,000,lmw,59.7761052576,prodShadow,2015_Jun_30_1520,midd,
target,gaka,stim/gaka.wav,1,5,55,20,,,space,2.55122900009,,,000,lmw,59.7761052576,prodShadow,2015_Jun_30_1520,midd,
distractor,uta,stim/uta.wav,1,6,56,49,,,space,2.30062294006,,,000,lmw,59.7761052576,prodShadow,2015_Jun_30_1520,midd,
target,toko,stim/toko.wav,1,7,57,47,,,space,2.18427109718,,,000,lmw,59.7761052576,prodShadow,2015_Jun_30_1520,midd,
target,peke,stim/peke.wav,1,8,58,37,,,space,1.96820688248,,,000,lmw,59.7761052576,prodShadow,2015_Jun_30_1520,midd,
distractor,epa,stim/epa.wav,1,9,59,19,,,space,2.15115690231,,,000,lmw,59.7761052576,prodShadow,2015_Jun_30_1520,midd,
pname,gato,stim/gato.wav,1,10,60,21,,,space,2.68459510803,,,000,lmw,59.7761052576,prodShadow,2015_Jun_30_1520,midd,
distractor,oka,stim/oka.wav,1,11,61,34,,,space,2.28468489647,,,000,lmw,59.7761052576,prodShadow,2015_Jun_30_1520,midd,
target,piki,stim/piki.wav,1,12,62,38,,,space,2.16705107689,,,000,lmw,59.7761052576,prodShadow,2015_Jun_30_1520,midd,
distractor,ita,stim/ita.wav,1,13,63,27,,,space,2.21854615211,,,000,lmw,59.7761052576,prodShadow,2015_Jun_30_1520,midd,
target,kaka,stim/kaka.wav,1,14,64,28,,,space,2.30129098892,,,000,lmw,59.7761052576,prodShadow,2015_Jun_30_1520,midd,
distractor,apa,stim/apa.wav,1,15,65,1,,,space,2.01848721504,,,000,lmw,59.7761052576,prodShadow,2015_Jun_30_1520,midd,
target,baka,stim/baka.wav,1,16,66,2,,,space,2.51727104187,,,000,lmw,59.7761052576,prodShadow,2015_Jun_30_1520,midd,
target,goko,stim/goko.wav,1,17,67,24,,,space,2.43432593346,,,000,lmw,59.7761052576,prodShadow,2015_Jun_30_1520,midd,
target,beke,stim/beke.wav,1,18,68,4,,,space,2.60038304329,,,000,lmw,59.7761052576,prodShadow,2015_Jun_30_1520,midd,
target,poko,stim/poko.wav,1,19,69,39,,,space,2.00136899948,,,000,lmw,59.7761052576,prodShadow,2015_Jun_30_1520,midd,
target,boko,stim/boko.wav,1,20,70,6,,,space,2.41734409332,,,000,lmw,59.7761052576,prodShadow,2015_Jun_30_1520,midd,
target,teke,stim/teke.wav,1,21,71,44,,,space,2.0012319088,,,000,lmw,59.7761052576,prodShadow,2015_Jun_30_1520,midd,
pname,taco,stim/taco.wav,1,22,72,42,,,space,2.30164909363,,,000,lmw,59.7761052576,prodShadow,2015_Jun_30_1520,midd,
pname,dodo,stim/dodo.wav,1,23,73,15,,,space,2.08389782906,,,000,lmw,59.7761052576,prodShadow,2015_Jun_30_1520,midd,
pname,topo,stim/topo.wav,1,24,74,46,,,space,2.1006360054,,,000,lmw,59.7761052576,prodShadow,2015_Jun_30_1520,midd,
pname,gota,stim/gota.wav,1,25,75,25,,,space,2.36837100983,,,000,lmw,59.7761052576,prodShadow,2015_Jun_30_1520,midd,
target,kiki,stim/kiki.wav,1,26,76,30,,,space,2.15164899826,,,000,lmw,59.7761052576,prodShadow,2015_Jun_30_1520,midd,
distractor,ada,stim/ada.wav,1,27,77,0,,,space,2.26783204079,,,000,lmw,59.7761052576,prodShadow,2015_Jun_30_1520,midd,
distractor,eda,stim/eda.wav,1,28,78,18,,,space,2.55004787445,,,000,lmw,59.7761052576,prodShadow,2015_Jun_30_1520,midd,
target,keke,stim/keke.wav,1,29,79,29,,,space,2.28445887566,,,000,lmw,59.7761052576,prodShadow,2015_Jun_30_1520,midd,
target,paka,stim/paka.wav,1,30,80,35,,,space,2.58350396156,,,000,lmw,59.7761052576,prodShadow,2015_Jun_30_1520,midd,
pname,bola,stim/bola.wav,1,31,81,7,,,space,2.30141711235,,,000,lmw,59.7761052576,prodShadow,2015_Jun_30_1520,midd,
target,daka,stim/daka.wav,1,32,82,12,,,space,2.45040392876,,,000,lmw,59.7761052576,prodShadow,2015_Jun_30_1520,midd,
target,puku,stim/puku.wav,1,33,83,41,,,space,2.45083999634,,,000,lmw,59.7761052576,prodShadow,2015_Jun_30_1520,midd,
pname,caca,stim/caca.wav,1,34,84,9,,,space,2.16769099236,,,000,lmw,59.7761052576,prodShadow,2015_Jun_30_1520,midd,
target,tiki,stim/tiki.wav,1,35,85,45,,,space,2.1014111042,,,000,lmw,59.7761052576,prodShadow,2015_Jun_30_1520,midd,
target,duku,stim/duku.wav,1,36,86,17,,,space,2.45064902306,,,000,lmw,59.7761052576,prodShadow,2015_Jun_30_1520,midd,
target,deke,stim/deke.wav,1,37,87,13,,,space,2.26749110222,,,000,lmw,59.7761052576,prodShadow,2015_Jun_30_1520,midd,
target,biki,stim/biki.wav,1,38,88,5,,,space,2.15075707436,,,000,lmw,59.7761052576,prodShadow,2015_Jun_30_1520,midd,
target,buku,stim/buku.wav,1,39,89,8,,,space,2.03484296799,,,000,lmw,59.7761052576,prodShadow,2015_Jun_30_1520,midd,
pname,palo,stim/palo.wav,1,40,90,36,,,space,1.85058689117,,,000,lmw,59.7761052576,prodShadow,2015_Jun_30_1520,midd,
pname,coco,stim/coco.wav,1,41,91,10,,,space,2.11763906479,,,000,lmw,59.7761052576,prodShadow,2015_Jun_30_1520,midd,
target,koko,stim/koko.wav,1,42,92,31,,,space,2.15133595467,,,000,lmw,59.7761052576,prodShadow,2015_Jun_30_1520,midd,
target,guku,stim/guku.wav,1,43,93,26,,,space,3.93475604057,,,000,lmw,59.7761052576,prodShadow,2015_Jun_30_1520,midd,
target,giki,stim/giki.wav,1,44,94,23,,,space,2.01744198799,,,000,lmw,59.7761052576,prodShadow,2015_Jun_30_1520,midd,
target,diki,stim/diki.wav,1,45,95,14,,,space,1.8676109314,,,000,lmw,59.7761052576,prodShadow,2015_Jun_30_1520,midd,
distractor,oba,stim/oba.wav,1,46,96,33,,,space,2.13423991203,,,000,lmw,59.7761052576,prodShadow,2015_Jun_30_1520,midd,
target,geke,stim/geke.wav,1,47,97,22,,,space,2.4342610836,,,000,lmw,59.7761052576,prodShadow,2015_Jun_30_1520,midd,
target,tuku,stim/tuku.wav,1,48,98,48,,,space,1.88437008858,,,000,lmw,59.7761052576,prodShadow,2015_Jun_30_1520,midd,
pname,bala,stim/bala.wav,1,49,99,3,,,space,2.21794199944,,,000,lmw,59.7761052576,prodShadow,2015_Jun_30_1520,midd,
target,peke,stim/peke.wav,2,0,100,37,,,space,2.18417000771,,,000,lmw,59.7761052576,prodShadow,2015_Jun_30_1520,midd,
target,kiki,stim/kiki.wav,2,1,101,30,,,space,2.01743102074,,,000,lmw,59.7761052576,prodShadow,2015_Jun_30_1520,midd,
target,poko,stim/poko.wav,2,2,102,39,,,space,1.88428997993,,,000,lmw,59.7761052576,prodShadow,2015_Jun_30_1520,midd,
target,toko,stim/toko.wav,2,3,103,47,,,space,1.86710309982,,,000,lmw,59.7761052576,prodShadow,2015_Jun_30_1520,midd,
target,guku,stim/guku.wav,2,4,104,26,,,space,1.76784896851,,,000,lmw,59.7761052576,prodShadow,2015_Jun_30_1520,midd,
target,keke,stim/keke.wav,2,5,105,29,,,space,1.90107584,,,000,lmw,59.7761052576,prodShadow,2015_Jun_30_1520,midd,
target,tuku,stim/tuku.wav,2,6,106,48,,,space,1.80074906349,,,000,lmw,59.7761052576,prodShadow,2015_Jun_30_1520,midd,
pname,bala,stim/bala.wav,2,7,107,3,,,space,1.35082983971,,,000,lmw,59.7761052576,prodShadow,2015_Jun_30_1520,midd,
pname,gota,stim/gota.wav,2,8,108,25,,,space,2.40108704567,,,000,lmw,59.7761052576,prodShadow,2015_Jun_30_1520,midd,
distractor,oba,stim/oba.wav,2,9,109,33,,,space,2.16763901711,,,000,lmw,59.7761052576,prodShadow,2015_Jun_30_1520,midd,
pname,topo,stim/topo.wav,2,10,110,46,,,space,2.28415989876,,,000,lmw,59.7761052576,prodShadow,2015_Jun_30_1520,midd,
target,deke,stim/deke.wav,2,11,111,13,,,space,2.25076985359,,,000,lmw,59.7761052576,prodShadow,2015_Jun_30_1520,midd,
pname,caca,stim/caca.wav,2,12,112,9,,,space,2.26706504822,,,000,lmw,59.7761052576,prodShadow,2015_Jun_30_1520,midd,
pname,gato,stim/gato.wav,2,13,113,21,,,space,2.83441901207,,,000,lmw,59.7761052576,prodShadow,2015_Jun_30_1520,midd,
target,beke,stim/beke.wav,2,14,114,4,,,space,2.90109801292,,,000,lmw,59.7761052576,prodShadow,2015_Jun_30_1520,midd,
distractor,epa,stim/epa.wav,2,15,115,19,,,space,2.21773910522,,,000,lmw,59.7761052576,prodShadow,2015_Jun_30_1520,midd,
target,koko,stim/koko.wav,2,16,116,31,,,space,2.30100893974,,,000,lmw,59.7761052576,prodShadow,2015_Jun_30_1520,midd,
target,gaka,stim/gaka.wav,2,17,117,20,,,space,2.26764798164,,,000,lmw,59.7761052576,prodShadow,2015_Jun_30_1520,midd,
target,kaka,stim/kaka.wav,2,18,118,28,,,space,2.35109806061,,,000,lmw,59.7761052576,prodShadow,2015_Jun_30_1520,midd,
target,taka,stim/taka.wav,2,19,119,43,,,space,2.21765995026,,,000,lmw,59.7761052576,prodShadow,2015_Jun_30_1520,midd,
pname,polo,stim/polo.wav,2,20,120,40,,,space,2.1341509819,,,000,lmw,59.7761052576,prodShadow,2015_Jun_30_1520,midd,
pname,bola,stim/bola.wav,2,21,121,7,,,space,2.31746602058,,,000,lmw,59.7761052576,prodShadow,2015_Jun_30_1520,midd,
pname,coco,stim/coco.wav,2,22,122,10,,,space,2.31724095345,,,000,lmw,59.7761052576,prodShadow,2015_Jun_30_1520,midd,
target,baka,stim/baka.wav,2,23,123,2,,,space,2.80069208145,,,000,lmw,59.7761052576,prodShadow,2015_Jun_30_1520,midd,
target,doko,stim/doko.wav,2,24,124,16,,,space,2.56748986244,,,000,lmw,59.7761052576,prodShadow,2015_Jun_30_1520,midd,
target,goko,stim/goko.wav,2,25,125,24,,,space,2.4011888504,,,000,lmw,59.7761052576,prodShadow,2015_Jun_30_1520,midd,
target,piki,stim/piki.wav,2,26,126,38,,,space,2.21749186516,,,000,lmw,59.7761052576,prodShadow,2015_Jun_30_1520,midd,
target,biki,stim/biki.wav,2,27,127,5,,,space,2.21765804291,,,000,lmw,59.7761052576,prodShadow,2015_Jun_30_1520,midd,
distractor,uta,stim/uta.wav,2,28,128,49,,,space,2.16753697395,,,000,lmw,59.7761052576,prodShadow,2015_Jun_30_1520,midd,
distractor,oka,stim/oka.wav,2,29,129,34,,,space,2.35106611252,,,000,lmw,59.7761052576,prodShadow,2015_Jun_30_1520,midd,
pname,dodo,stim/dodo.wav,2,30,130,15,,,space,2.53427100182,,,000,lmw,59.7761052576,prodShadow,2015_Jun_30_1520,midd,
target,kuku,stim/kuku.wav,2,31,131,32,,,space,2.26783490181,,,000,lmw,59.7761052576,prodShadow,2015_Jun_30_1520,midd,
target,geke,stim/geke.wav,2,32,132,22,,,space,2.25054502487,,,000,lmw,59.7761052576,prodShadow,2015_Jun_30_1520,midd,
target,boko,stim/boko.wav,2,33,133,6,,,space,2.40139198303,,,000,lmw,59.7761052576,prodShadow,2015_Jun_30_1520,midd,
target,duku,stim/duku.wav,2,34,134,17,,,space,2.13452386856,,,000,lmw,59.7761052576,prodShadow,2015_Jun_30_1520,midd,
target,buku,stim/buku.wav,2,35,135,8,,,space,2.36724996567,,,000,lmw,59.7761052576,prodShadow,2015_Jun_30_1520,midd,
target,paka,stim/paka.wav,2,36,136,35,,,space,2.18422198296,,,000,lmw,59.7761052576,prodShadow,2015_Jun_30_1520,midd,
target,tiki,stim/tiki.wav,2,37,137,45,,,space,2.18442416191,,,000,lmw,59.7761052576,prodShadow,2015_Jun_30_1520,midd,
target,giki,stim/giki.wav,2,38,138,23,,,space,2.10093593597,,,000,lmw,59.7761052576,prodShadow,2015_Jun_30_1520,midd,
distractor,eda,stim/eda.wav,2,39,139,18,,,space,2.13450717926,,,000,lmw,59.7761052576,prodShadow,2015_Jun_30_1520,midd,
target,daka,stim/daka.wav,2,40,140,12,,,space,2.16693091393,,,000,lmw,59.7761052576,prodShadow,2015_Jun_30_1520,midd,
target,diki,stim/diki.wav,2,41,141,14,,,space,2.1842341423,,,000,lmw,59.7761052576,prodShadow,2015_Jun_30_1520,midd,
distractor,ada,stim/ada.wav,2,42,142,0,,,space,2.1674349308,,,000,lmw,59.7761052576,prodShadow,2015_Jun_30_1520,midd,
pname,dado,stim/dado.wav,2,43,143,11,,,space,2.13429689407,,,000,lmw,59.7761052576,prodShadow,2015_Jun_30_1520,midd,
target,teke,stim/teke.wav,2,44,144,44,,,space,2.10115098953,,,000,lmw,59.7761052576,prodShadow,2015_Jun_30_1520,midd,
pname,palo,stim/palo.wav,2,45,145,36,,,space,2.41804003716,,,000,lmw,59.7761052576,prodShadow,2015_Jun_30_1520,midd,
pname,taco,stim/taco.wav,2,46,146,42,,,space,2.56791114807,,,000,lmw,59.7761052576,prodShadow,2015_Jun_30_1520,midd,
target,puku,stim/puku.wav,2,47,147,41,,,space,2.43434906006,,,000,lmw,59.7761052576,prodShadow,2015_Jun_30_1520,midd,
distractor,apa,stim/apa.wav,2,48,148,1,,,space,2.40136909485,,,000,lmw,59.7761052576,prodShadow,2015_Jun_30_1520,midd,
distractor,ita,stim/ita.wav,2,49,149,27,,,space,2.70099592209,,,000,lmw,59.7761052576,prodShadow,2015_Jun_30_1520,midd,
,,,,,,,,,,,space,10.8678319454,000,lmw,59.7761052576,prodShadow,2015_Jun_30_1520,midd,
