status,text,stim,trials.thisRepN,trials.thisTrialN,trials.thisN,trials.thisIndex,key_resp_3.keys,key_resp_3.rt,key_resp_2.keys,key_resp_2.rt,key_resp_4.keys,key_resp_4.rt,session,participant,frameRate,expName,date,condition,
,,,,,,,space,3.66703510284,,,,,004,jmt,None,prodShadow,2015_Jul_26_1833,midd,
target,diki,stim/diki.wav,0,0,0,14,,,space,1.15059804916,,,004,jmt,None,prodShadow,2015_Jul_26_1833,midd,
target,peke,stim/peke.wav,0,1,1,37,,,space,0.81764292717,,,004,jmt,None,prodShadow,2015_Jul_26_1833,midd,
target,guku,stim/guku.wav,0,2,2,26,,,space,0.917598009109,,,004,jmt,None,prodShadow,2015_Jul_26_1833,midd,
distractor,epa,stim/epa.wav,0,3,3,19,,,space,0.801450967789,,,004,jmt,None,prodShadow,2015_Jul_26_1833,midd,
target,koko,stim/koko.wav,0,4,4,31,,,space,0.934181928635,,,004,jmt,None,prodShadow,2015_Jul_26_1833,midd,
target,beke,stim/beke.wav,0,5,5,4,,,space,1.21760892868,,,004,jmt,None,prodShadow,2015_Jul_26_1833,midd,
pname,gota,stim/gota.wav,0,6,6,25,,,space,1.01800203323,,,004,jmt,None,prodShadow,2015_Jul_26_1833,midd,
target,buku,stim/buku.wav,0,7,7,8,,,space,0.950568914413,,,004,jmt,None,prodShadow,2015_Jul_26_1833,midd,
distractor,ada,stim/ada.wav,0,8,8,0,,,space,0.800510168076,,,004,jmt,None,prodShadow,2015_Jul_26_1833,midd,
target,piki,stim/piki.wav,0,9,9,38,,,space,0.750653982162,,,004,jmt,None,prodShadow,2015_Jul_26_1833,midd,
target,gaka,stim/gaka.wav,0,10,10,20,,,space,1.0004401207,,,004,jmt,None,prodShadow,2015_Jul_26_1833,midd,
target,keke,stim/keke.wav,0,11,11,29,,,space,0.867105960846,,,004,jmt,None,prodShadow,2015_Jul_26_1833,midd,
target,teke,stim/teke.wav,0,12,12,44,,,space,0.950577974319,,,004,jmt,None,prodShadow,2015_Jul_26_1833,midd,
pname,topo,stim/topo.wav,0,13,13,46,,,space,0.767233133316,,,004,jmt,None,prodShadow,2015_Jul_26_1833,midd,
pname,dodo,stim/dodo.wav,0,14,14,15,,,space,0.917656898499,,,004,jmt,None,prodShadow,2015_Jul_26_1833,midd,
distractor,apa,stim/apa.wav,0,15,15,1,,,space,0.90026807785,,,004,jmt,None,prodShadow,2015_Jul_26_1833,midd,
pname,caca,stim/caca.wav,0,16,16,9,,,space,0.96725487709,,,004,jmt,None,prodShadow,2015_Jul_26_1833,midd,
pname,dado,stim/dado.wav,0,17,17,11,,,space,1.13449001312,,,004,jmt,None,prodShadow,2015_Jul_26_1833,midd,
target,puku,stim/puku.wav,0,18,18,41,,,space,0.950820922852,,,004,jmt,None,prodShadow,2015_Jul_26_1833,midd,
pname,polo,stim/polo.wav,0,19,19,40,,,space,0.883880853653,,,004,jmt,None,prodShadow,2015_Jul_26_1833,midd,
target,toko,stim/toko.wav,0,20,20,47,,,space,1.05044102669,,,004,jmt,None,prodShadow,2015_Jul_26_1833,midd,
target,boko,stim/boko.wav,0,21,21,6,,,space,0.917397022247,,,004,jmt,None,prodShadow,2015_Jul_26_1833,midd,
target,tiki,stim/tiki.wav,0,22,22,45,,,space,0.750230073929,,,004,jmt,None,prodShadow,2015_Jul_26_1833,midd,
pname,taco,stim/taco.wav,0,23,23,42,,,space,0.850746154785,,,004,jmt,None,prodShadow,2015_Jul_26_1833,midd,
pname,palo,stim/palo.wav,0,24,24,36,,,space,0.866853952408,,,004,jmt,None,prodShadow,2015_Jul_26_1833,midd,
distractor,ita,stim/ita.wav,0,25,25,27,,,space,0.867478847504,,,004,jmt,None,prodShadow,2015_Jul_26_1833,midd,
target,kaka,stim/kaka.wav,0,26,26,28,,,space,0.917614936829,,,004,jmt,None,prodShadow,2015_Jul_26_1833,midd,
pname,gato,stim/gato.wav,0,27,27,21,,,space,1.2008368969,,,004,jmt,None,prodShadow,2015_Jul_26_1833,midd,
pname,bola,stim/bola.wav,0,28,28,7,,,space,0.966331958771,,,004,jmt,None,prodShadow,2015_Jul_26_1833,midd,
target,kiki,stim/kiki.wav,0,29,29,30,,,space,0.93360710144,,,004,jmt,None,prodShadow,2015_Jul_26_1833,midd,
target,paka,stim/paka.wav,0,30,30,35,,,space,0.833584070206,,,004,jmt,None,prodShadow,2015_Jul_26_1833,midd,
target,poko,stim/poko.wav,0,31,31,39,,,space,0.733474969864,,,004,jmt,None,prodShadow,2015_Jul_26_1833,midd,
target,daka,stim/daka.wav,0,32,32,12,,,space,0.850461959839,,,004,jmt,None,prodShadow,2015_Jul_26_1833,midd,
target,tuku,stim/tuku.wav,0,33,33,48,,,space,0.784379959106,,,004,jmt,None,prodShadow,2015_Jul_26_1833,midd,
target,duku,stim/duku.wav,0,34,34,17,,,space,0.90066409111,,,004,jmt,None,prodShadow,2015_Jul_26_1833,midd,
target,kuku,stim/kuku.wav,0,35,35,32,,,space,0.718357801437,,,004,jmt,None,prodShadow,2015_Jul_26_1833,midd,
target,biki,stim/biki.wav,0,36,36,5,,,space,1.01748800278,,,004,jmt,None,prodShadow,2015_Jul_26_1833,midd,
target,giki,stim/giki.wav,0,37,37,23,,,space,0.76729798317,,,004,jmt,None,prodShadow,2015_Jul_26_1833,midd,
distractor,eda,stim/eda.wav,0,38,38,18,,,space,0.767117023468,,,004,jmt,None,prodShadow,2015_Jul_26_1833,midd,
target,doko,stim/doko.wav,0,39,39,16,,,space,0.766351938248,,,004,jmt,None,prodShadow,2015_Jul_26_1833,midd,
target,geke,stim/geke.wav,0,40,40,22,,,space,0.850779056549,,,004,jmt,None,prodShadow,2015_Jul_26_1833,midd,
target,goko,stim/goko.wav,0,41,41,24,,,space,0.850552082062,,,004,jmt,None,prodShadow,2015_Jul_26_1833,midd,
distractor,oba,stim/oba.wav,0,42,42,33,,,space,0.633985042572,,,004,jmt,None,prodShadow,2015_Jul_26_1833,midd,
pname,bala,stim/bala.wav,0,43,43,3,,,space,0.74991106987,,,004,jmt,None,prodShadow,2015_Jul_26_1833,midd,
target,baka,stim/baka.wav,0,44,44,2,,,space,0.917479038239,,,004,jmt,None,prodShadow,2015_Jul_26_1833,midd,
pname,coco,stim/coco.wav,0,45,45,10,,,space,0.750790119171,,,004,jmt,None,prodShadow,2015_Jul_26_1833,midd,
target,deke,stim/deke.wav,0,46,46,13,,,space,0.984375953674,,,004,jmt,None,prodShadow,2015_Jul_26_1833,midd,
distractor,uta,stim/uta.wav,0,47,47,49,,,space,0.750360965729,,,004,jmt,None,prodShadow,2015_Jul_26_1833,midd,
distractor,oka,stim/oka.wav,0,48,48,34,,,space,0.767405986786,,,004,jmt,None,prodShadow,2015_Jul_26_1833,midd,
target,taka,stim/taka.wav,0,49,49,43,,,space,0.784558057785,,,004,jmt,None,prodShadow,2015_Jul_26_1833,midd,
target,poko,stim/poko.wav,1,0,50,39,,,space,0.700385808945,,,004,jmt,None,prodShadow,2015_Jul_26_1833,midd,
pname,coco,stim/coco.wav,1,1,51,10,,,space,0.950941801071,,,004,jmt,None,prodShadow,2015_Jul_26_1833,midd,
target,doko,stim/doko.wav,1,2,52,16,,,space,0.917571783066,,,004,jmt,None,prodShadow,2015_Jul_26_1833,midd,
distractor,oba,stim/oba.wav,1,3,53,33,,,space,0.68451499939,,,004,jmt,None,prodShadow,2015_Jul_26_1833,midd,
pname,topo,stim/topo.wav,1,4,54,46,,,space,0.584343194962,,,004,jmt,None,prodShadow,2015_Jul_26_1833,midd,
target,kaka,stim/kaka.wav,1,5,55,28,,,space,0.950386047363,,,004,jmt,None,prodShadow,2015_Jul_26_1833,midd,
distractor,oka,stim/oka.wav,1,6,56,34,,,space,0.717072963715,,,004,jmt,None,prodShadow,2015_Jul_26_1833,midd,
target,peke,stim/peke.wav,1,7,57,37,,,space,0.167713880539,,,004,jmt,None,prodShadow,2015_Jul_26_1833,midd,
target,teke,stim/teke.wav,1,8,58,44,,,space,0.700301170349,,,004,jmt,None,prodShadow,2015_Jul_26_1833,midd,
target,paka,stim/paka.wav,1,9,59,35,,,space,0.900971889496,,,004,jmt,None,prodShadow,2015_Jul_26_1833,midd,
distractor,ita,stim/ita.wav,1,10,60,27,,,space,0.782697916031,,,004,jmt,None,prodShadow,2015_Jul_26_1833,midd,
pname,dado,stim/dado.wav,1,11,61,11,,,space,0.984442949295,,,004,jmt,None,prodShadow,2015_Jul_26_1833,midd,
target,goko,stim/goko.wav,1,12,62,24,,,space,0.950360059738,,,004,jmt,None,prodShadow,2015_Jul_26_1833,midd,
target,diki,stim/diki.wav,1,13,63,14,,,space,0.167746067047,,,004,jmt,None,prodShadow,2015_Jul_26_1833,midd,
distractor,apa,stim/apa.wav,1,14,64,1,,,space,0.817080974579,,,004,jmt,None,prodShadow,2015_Jul_26_1833,midd,
target,keke,stim/keke.wav,1,15,65,29,,,space,0.884548902512,,,004,jmt,None,prodShadow,2015_Jul_26_1833,midd,
pname,bala,stim/bala.wav,1,16,66,3,,,space,0.850788116455,,,004,jmt,None,prodShadow,2015_Jul_26_1833,midd,
distractor,epa,stim/epa.wav,1,17,67,19,,,space,0.817414045334,,,004,jmt,None,prodShadow,2015_Jul_26_1833,midd,
target,giki,stim/giki.wav,1,18,68,23,,,space,0.734915018082,,,004,jmt,None,prodShadow,2015_Jul_26_1833,midd,
target,daka,stim/daka.wav,1,19,69,12,,,space,0.950973033905,,,004,jmt,None,prodShadow,2015_Jul_26_1833,midd,
target,duku,stim/duku.wav,1,20,70,17,,,space,0.834697008133,,,004,jmt,None,prodShadow,2015_Jul_26_1833,midd,
target,boko,stim/boko.wav,1,21,71,6,,,space,0.933571100235,,,004,jmt,None,prodShadow,2015_Jul_26_1833,midd,
target,tuku,stim/tuku.wav,1,22,72,48,,,space,0.867494821548,,,004,jmt,None,prodShadow,2015_Jul_26_1833,midd,
pname,palo,stim/palo.wav,1,23,73,36,,,space,0.80123090744,,,004,jmt,None,prodShadow,2015_Jul_26_1833,midd,
pname,taco,stim/taco.wav,1,24,74,42,,,space,0.950966119766,,,004,jmt,None,prodShadow,2015_Jul_26_1833,midd,
pname,gato,stim/gato.wav,1,25,75,21,,,space,1.28362393379,,,004,jmt,None,prodShadow,2015_Jul_26_1833,midd,
target,taka,stim/taka.wav,1,26,76,43,,,space,1.01760816574,,,004,jmt,None,prodShadow,2015_Jul_26_1833,midd,
distractor,ada,stim/ada.wav,1,27,77,0,,,space,1.01756310463,,,004,jmt,None,prodShadow,2015_Jul_26_1833,midd,
target,beke,stim/beke.wav,1,28,78,4,,,space,1.4847638607,,,004,jmt,None,prodShadow,2015_Jul_26_1833,midd,
target,buku,stim/buku.wav,1,29,79,8,,,space,0.917436122894,,,004,jmt,None,prodShadow,2015_Jul_26_1833,midd,
pname,bola,stim/bola.wav,1,30,80,7,,,space,0.884046077728,,,004,jmt,None,prodShadow,2015_Jul_26_1833,midd,
target,geke,stim/geke.wav,1,31,81,22,,,space,0.951297044754,,,004,jmt,None,prodShadow,2015_Jul_26_1833,midd,
pname,caca,stim/caca.wav,1,32,82,9,,,space,0.833296060562,,,004,jmt,None,prodShadow,2015_Jul_26_1833,midd,
target,gaka,stim/gaka.wav,1,33,83,20,,,space,0.967177152634,,,004,jmt,None,prodShadow,2015_Jul_26_1833,midd,
distractor,eda,stim/eda.wav,1,34,84,18,,,space,0.800509929657,,,004,jmt,None,prodShadow,2015_Jul_26_1833,midd,
target,tiki,stim/tiki.wav,1,35,85,45,,,space,0.76735496521,,,004,jmt,None,prodShadow,2015_Jul_26_1833,midd,
target,piki,stim/piki.wav,1,36,86,38,,,space,0.800630092621,,,004,jmt,None,prodShadow,2015_Jul_26_1833,midd,
pname,dodo,stim/dodo.wav,1,37,87,15,,,space,0.918360948563,,,004,jmt,None,prodShadow,2015_Jul_26_1833,midd,
target,baka,stim/baka.wav,1,38,88,2,,,space,0.984750032425,,,004,jmt,None,prodShadow,2015_Jul_26_1833,midd,
target,kiki,stim/kiki.wav,1,39,89,30,,,space,0.750524997711,,,004,jmt,None,prodShadow,2015_Jul_26_1833,midd,
target,deke,stim/deke.wav,1,40,90,13,,,space,1.05125713348,,,004,jmt,None,prodShadow,2015_Jul_26_1833,midd,
target,kuku,stim/kuku.wav,1,41,91,32,,,space,0.716876029968,,,004,jmt,None,prodShadow,2015_Jul_26_1833,midd,
target,biki,stim/biki.wav,1,42,92,5,,,space,1.01732778549,,,004,jmt,None,prodShadow,2015_Jul_26_1833,midd,
target,koko,stim/koko.wav,1,43,93,31,,,space,0.783277988434,,,004,jmt,None,prodShadow,2015_Jul_26_1833,midd,
distractor,uta,stim/uta.wav,1,44,94,49,,,space,0.784442901611,,,004,jmt,None,prodShadow,2015_Jul_26_1833,midd,
target,toko,stim/toko.wav,1,45,95,47,,,space,0.783718109131,,,004,jmt,None,prodShadow,2015_Jul_26_1833,midd,
target,guku,stim/guku.wav,1,46,96,26,,,space,0.866859197617,,,004,jmt,None,prodShadow,2015_Jul_26_1833,midd,
pname,polo,stim/polo.wav,1,47,97,40,,,space,0.81759595871,,,004,jmt,None,prodShadow,2015_Jul_26_1833,midd,
pname,gota,stim/gota.wav,1,48,98,25,,,space,0.900515079498,,,004,jmt,None,prodShadow,2015_Jul_26_1833,midd,
target,puku,stim/puku.wav,1,49,99,41,,,space,0.849899053574,,,004,jmt,None,prodShadow,2015_Jul_26_1833,midd,
target,doko,stim/doko.wav,2,0,100,16,,,space,1.10013198853,,,004,jmt,None,prodShadow,2015_Jul_26_1833,midd,
target,taka,stim/taka.wav,2,1,101,43,,,space,0.867285013199,,,004,jmt,None,prodShadow,2015_Jul_26_1833,midd,
target,daka,stim/daka.wav,2,2,102,12,,,space,0.900742053986,,,004,jmt,None,prodShadow,2015_Jul_26_1833,midd,
pname,dado,stim/dado.wav,2,3,103,11,,,space,1.00129890442,,,004,jmt,None,prodShadow,2015_Jul_26_1833,midd,
target,guku,stim/guku.wav,2,4,104,26,,,space,0.801048994064,,,004,jmt,None,prodShadow,2015_Jul_26_1833,midd,
target,boko,stim/boko.wav,2,5,105,6,,,space,1.05159282684,,,004,jmt,None,prodShadow,2015_Jul_26_1833,midd,
pname,caca,stim/caca.wav,2,6,106,9,,,space,0.767494916916,,,004,jmt,None,prodShadow,2015_Jul_26_1833,midd,
target,peke,stim/peke.wav,2,7,107,37,,,space,0.633504152298,,,004,jmt,None,prodShadow,2015_Jul_26_1833,midd,
target,kiki,stim/kiki.wav,2,8,108,30,,,space,0.684745073318,,,004,jmt,None,prodShadow,2015_Jul_26_1833,midd,
target,duku,stim/duku.wav,2,9,109,17,,,space,0.550613164902,,,004,jmt,None,prodShadow,2015_Jul_26_1833,midd,
distractor,oba,stim/oba.wav,2,10,110,33,,,space,0.734477043152,,,004,jmt,None,prodShadow,2015_Jul_26_1833,midd,
target,diki,stim/diki.wav,2,11,111,14,,,space,0.766495943069,,,004,jmt,None,prodShadow,2015_Jul_26_1833,midd,
distractor,epa,stim/epa.wav,2,12,112,19,,,space,0.651314020157,,,004,jmt,None,prodShadow,2015_Jul_26_1833,midd,
target,deke,stim/deke.wav,2,13,113,13,,,space,0.967720985413,,,004,jmt,None,prodShadow,2015_Jul_26_1833,midd,
target,giki,stim/giki.wav,2,14,114,23,,,space,0.999936103821,,,004,jmt,None,prodShadow,2015_Jul_26_1833,midd,
target,gaka,stim/gaka.wav,2,15,115,20,,,space,0.966521978378,,,004,jmt,None,prodShadow,2015_Jul_26_1833,midd,
target,paka,stim/paka.wav,2,16,116,35,,,space,0.717339992523,,,004,jmt,None,prodShadow,2015_Jul_26_1833,midd,
target,teke,stim/teke.wav,2,17,117,44,,,space,0.750253915787,,,004,jmt,None,prodShadow,2015_Jul_26_1833,midd,
distractor,ita,stim/ita.wav,2,18,118,27,,,space,0.534294843674,,,004,jmt,None,prodShadow,2015_Jul_26_1833,midd,
distractor,apa,stim/apa.wav,2,19,119,1,,,space,0.650667190552,,,004,jmt,None,prodShadow,2015_Jul_26_1833,midd,
distractor,oka,stim/oka.wav,2,20,120,34,,,space,0.417015075684,,,004,jmt,None,prodShadow,2015_Jul_26_1833,midd,
target,kaka,stim/kaka.wav,2,21,121,28,,,space,0.749934911728,,,004,jmt,None,prodShadow,2015_Jul_26_1833,midd,
target,tuku,stim/tuku.wav,2,22,122,48,,,space,0.967329978943,,,004,jmt,None,prodShadow,2015_Jul_26_1833,midd,
target,piki,stim/piki.wav,2,23,123,38,,,space,0.867222070694,,,004,jmt,None,prodShadow,2015_Jul_26_1833,midd,
target,buku,stim/buku.wav,2,24,124,8,,,space,0.867857933044,,,004,jmt,None,prodShadow,2015_Jul_26_1833,midd,
pname,taco,stim/taco.wav,2,25,125,42,,,space,0.966809988022,,,004,jmt,None,prodShadow,2015_Jul_26_1833,midd,
pname,gato,stim/gato.wav,2,26,126,21,,,space,1.38490414619,,,004,jmt,None,prodShadow,2015_Jul_26_1833,midd,
pname,palo,stim/palo.wav,2,27,127,36,,,space,0.967176914215,,,004,jmt,None,prodShadow,2015_Jul_26_1833,midd,
target,poko,stim/poko.wav,2,28,128,39,,,space,0.667232036591,,,004,jmt,None,prodShadow,2015_Jul_26_1833,midd,
distractor,ada,stim/ada.wav,2,29,129,0,,,space,0.917704105377,,,004,jmt,None,prodShadow,2015_Jul_26_1833,midd,
target,biki,stim/biki.wav,2,30,130,5,,,space,0.983556032181,,,004,jmt,None,prodShadow,2015_Jul_26_1833,midd,
target,goko,stim/goko.wav,2,31,131,24,,,space,0.817125082016,,,004,jmt,None,prodShadow,2015_Jul_26_1833,midd,
target,koko,stim/koko.wav,2,32,132,31,,,space,0.766067028046,,,004,jmt,None,prodShadow,2015_Jul_26_1833,midd,
target,puku,stim/puku.wav,2,33,133,41,,,space,0.883300065994,,,004,jmt,None,prodShadow,2015_Jul_26_1833,midd,
target,baka,stim/baka.wav,2,34,134,2,,,space,0.950018167496,,,004,jmt,None,prodShadow,2015_Jul_26_1833,midd,
pname,bola,stim/bola.wav,2,35,135,7,,,space,0.917572021484,,,004,jmt,None,prodShadow,2015_Jul_26_1833,midd,
pname,dodo,stim/dodo.wav,2,36,136,15,,,space,0.89999294281,,,004,jmt,None,prodShadow,2015_Jul_26_1833,midd,
target,kuku,stim/kuku.wav,2,37,137,32,,,space,0.751880884171,,,004,jmt,None,prodShadow,2015_Jul_26_1833,midd,
target,tiki,stim/tiki.wav,2,38,138,45,,,space,0.667216062546,,,004,jmt,None,prodShadow,2015_Jul_26_1833,midd,
target,keke,stim/keke.wav,2,39,139,29,,,space,0.683633089066,,,004,jmt,None,prodShadow,2015_Jul_26_1833,midd,
distractor,uta,stim/uta.wav,2,40,140,49,,,space,0.833672046661,,,004,jmt,None,prodShadow,2015_Jul_26_1833,midd,
target,geke,stim/geke.wav,2,41,141,22,,,space,1.05027914047,,,004,jmt,None,prodShadow,2015_Jul_26_1833,midd,
target,beke,stim/beke.wav,2,42,142,4,,,space,1.151034832,,,004,jmt,None,prodShadow,2015_Jul_26_1833,midd,
pname,bala,stim/bala.wav,2,43,143,3,,,space,0.766715049744,,,004,jmt,None,prodShadow,2015_Jul_26_1833,midd,
pname,topo,stim/topo.wav,2,44,144,46,,,space,0.634660005569,,,004,jmt,None,prodShadow,2015_Jul_26_1833,midd,
pname,polo,stim/polo.wav,2,45,145,40,,,space,0.866295099258,,,004,jmt,None,prodShadow,2015_Jul_26_1833,midd,
target,toko,stim/toko.wav,2,46,146,47,,,space,0.799922943115,,,004,jmt,None,prodShadow,2015_Jul_26_1833,midd,
distractor,eda,stim/eda.wav,2,47,147,18,,,space,1.01757287979,,,004,jmt,None,prodShadow,2015_Jul_26_1833,midd,
pname,coco,stim/coco.wav,2,48,148,10,,,space,0.967744112015,,,004,jmt,None,prodShadow,2015_Jul_26_1833,midd,
pname,gota,stim/gota.wav,2,49,149,25,,,space,1.05186104774,,,004,jmt,None,prodShadow,2015_Jul_26_1833,midd,
,,,,,,,,,,,space,69.1077470779,004,jmt,None,prodShadow,2015_Jul_26_1833,midd,
