status,text,stim,trials.thisRepN,trials.thisTrialN,trials.thisN,trials.thisIndex,key_resp_3.keys,key_resp_3.rt,key_resp_2.keys,key_resp_2.rt,key_resp_4.keys,key_resp_4.rt,session,participant,frameRate,expName,date,condition,
,,,,,,,space,0.98421216011,,,,,004,mam,60.0910899997,prodShadow,2015_Jul_26_1605,midd,
distractor,epa,stim/epa.wav,0,0,0,19,,,space,0.984003067017,,,004,mam,60.0910899997,prodShadow,2015_Jul_26_1605,midd,
target,tuku,stim/tuku.wav,0,1,1,48,,,space,0.950607061386,,,004,mam,60.0910899997,prodShadow,2015_Jul_26_1605,midd,
target,biki,stim/biki.wav,0,2,2,5,,,space,1.01719522476,,,004,mam,60.0910899997,prodShadow,2015_Jul_26_1605,midd,
pname,bala,stim/bala.wav,0,3,3,3,,,space,0.767311811447,,,004,mam,60.0910899997,prodShadow,2015_Jul_26_1605,midd,
target,teke,stim/teke.wav,0,4,4,44,,,space,0.333977222443,,,004,mam,60.0910899997,prodShadow,2015_Jul_26_1605,midd,
distractor,oba,stim/oba.wav,0,5,5,33,,,space,0.667387008667,,,004,mam,60.0910899997,prodShadow,2015_Jul_26_1605,midd,
pname,gato,stim/gato.wav,0,6,6,21,,,space,1.16693019867,,,004,mam,60.0910899997,prodShadow,2015_Jul_26_1605,midd,
target,kiki,stim/kiki.wav,0,7,7,30,,,space,0.733938932419,,,004,mam,60.0910899997,prodShadow,2015_Jul_26_1605,midd,
target,beke,stim/beke.wav,0,8,8,4,,,space,1.01726293564,,,004,mam,60.0910899997,prodShadow,2015_Jul_26_1605,midd,
target,peke,stim/peke.wav,0,9,9,37,,,space,0.734004020691,,,004,mam,60.0910899997,prodShadow,2015_Jul_26_1605,midd,
target,koko,stim/koko.wav,0,10,10,31,,,space,0.90068602562,,,004,mam,60.0910899997,prodShadow,2015_Jul_26_1605,midd,
target,guku,stim/guku.wav,0,11,11,26,,,space,1.0174241066,,,004,mam,60.0910899997,prodShadow,2015_Jul_26_1605,midd,
target,poko,stim/poko.wav,0,12,12,39,,,space,0.816957950592,,,004,mam,60.0910899997,prodShadow,2015_Jul_26_1605,midd,
pname,bola,stim/bola.wav,0,13,13,7,,,space,0.900712013245,,,004,mam,60.0910899997,prodShadow,2015_Jul_26_1605,midd,
target,boko,stim/boko.wav,0,14,14,6,,,space,0.950612068176,,,004,mam,60.0910899997,prodShadow,2015_Jul_26_1605,midd,
pname,dado,stim/dado.wav,0,15,15,11,,,space,0.933854103088,,,004,mam,60.0910899997,prodShadow,2015_Jul_26_1605,midd,
target,piki,stim/piki.wav,0,16,16,38,,,space,0.734132051468,,,004,mam,60.0910899997,prodShadow,2015_Jul_26_1605,midd,
target,duku,stim/duku.wav,0,17,17,17,,,space,0.884235143661,,,004,mam,60.0910899997,prodShadow,2015_Jul_26_1605,midd,
target,keke,stim/keke.wav,0,18,18,29,,,space,0.784065961838,,,004,mam,60.0910899997,prodShadow,2015_Jul_26_1605,midd,
pname,palo,stim/palo.wav,0,19,19,36,,,space,0.667383909225,,,004,mam,60.0910899997,prodShadow,2015_Jul_26_1605,midd,
distractor,ita,stim/ita.wav,0,20,20,27,,,space,0.833905935287,,,004,mam,60.0910899997,prodShadow,2015_Jul_26_1605,midd,
target,doko,stim/doko.wav,0,21,21,16,,,space,1.13396501541,,,004,mam,60.0910899997,prodShadow,2015_Jul_26_1605,midd,
distractor,eda,stim/eda.wav,0,22,22,18,,,space,1.01732301712,,,004,mam,60.0910899997,prodShadow,2015_Jul_26_1605,midd,
target,taka,stim/taka.wav,0,23,23,43,,,space,0.967371940613,,,004,mam,60.0910899997,prodShadow,2015_Jul_26_1605,midd,
target,daka,stim/daka.wav,0,24,24,12,,,space,0.967045068741,,,004,mam,60.0910899997,prodShadow,2015_Jul_26_1605,midd,
target,giki,stim/giki.wav,0,25,25,23,,,space,0.867539167404,,,004,mam,60.0910899997,prodShadow,2015_Jul_26_1605,midd,
target,toko,stim/toko.wav,0,26,26,47,,,space,0.83392906189,,,004,mam,60.0910899997,prodShadow,2015_Jul_26_1605,midd,
pname,polo,stim/polo.wav,0,27,27,40,,,space,0.833903074265,,,004,mam,60.0910899997,prodShadow,2015_Jul_26_1605,midd,
target,baka,stim/baka.wav,0,28,28,2,,,space,0.900356054306,,,004,mam,60.0910899997,prodShadow,2015_Jul_26_1605,midd,
pname,caca,stim/caca.wav,0,29,29,9,,,space,0.850910902023,,,004,mam,60.0910899997,prodShadow,2015_Jul_26_1605,midd,
distractor,uta,stim/uta.wav,0,30,30,49,,,space,0.784080028534,,,004,mam,60.0910899997,prodShadow,2015_Jul_26_1605,midd,
pname,coco,stim/coco.wav,0,31,31,10,,,space,1.06670999527,,,004,mam,60.0910899997,prodShadow,2015_Jul_26_1605,midd,
pname,topo,stim/topo.wav,0,32,32,46,,,space,0.783964157104,,,004,mam,60.0910899997,prodShadow,2015_Jul_26_1605,midd,
target,tiki,stim/tiki.wav,0,33,33,45,,,space,0.750422954559,,,004,mam,60.0910899997,prodShadow,2015_Jul_26_1605,midd,
target,buku,stim/buku.wav,0,34,34,8,,,space,0.883754014969,,,004,mam,60.0910899997,prodShadow,2015_Jul_26_1605,midd,
distractor,oka,stim/oka.wav,0,35,35,34,,,space,0.900990009308,,,004,mam,60.0910899997,prodShadow,2015_Jul_26_1605,midd,
pname,gota,stim/gota.wav,0,36,36,25,,,space,1.03385615349,,,004,mam,60.0910899997,prodShadow,2015_Jul_26_1605,midd,
distractor,ada,stim/ada.wav,0,37,37,0,,,space,0.91760802269,,,004,mam,60.0910899997,prodShadow,2015_Jul_26_1605,midd,
target,gaka,stim/gaka.wav,0,38,38,20,,,space,0.917720079422,,,004,mam,60.0910899997,prodShadow,2015_Jul_26_1605,midd,
target,goko,stim/goko.wav,0,39,39,24,,,space,0.85084104538,,,004,mam,60.0910899997,prodShadow,2015_Jul_26_1605,midd,
target,geke,stim/geke.wav,0,40,40,22,,,space,1.01720094681,,,004,mam,60.0910899997,prodShadow,2015_Jul_26_1605,midd,
target,paka,stim/paka.wav,0,41,41,35,,,space,0.750653982162,,,004,mam,60.0910899997,prodShadow,2015_Jul_26_1605,midd,
pname,taco,stim/taco.wav,0,42,42,42,,,space,0.817350149155,,,004,mam,60.0910899997,prodShadow,2015_Jul_26_1605,midd,
target,puku,stim/puku.wav,0,43,43,41,,,space,0.767420053482,,,004,mam,60.0910899997,prodShadow,2015_Jul_26_1605,midd,
target,deke,stim/deke.wav,0,44,44,13,,,space,0.934103012085,,,004,mam,60.0910899997,prodShadow,2015_Jul_26_1605,midd,
target,kaka,stim/kaka.wav,0,45,45,28,,,space,0.800524950027,,,004,mam,60.0910899997,prodShadow,2015_Jul_26_1605,midd,
target,diki,stim/diki.wav,0,46,46,14,,,space,0.7670981884,,,004,mam,60.0910899997,prodShadow,2015_Jul_26_1605,midd,
pname,dodo,stim/dodo.wav,0,47,47,15,,,space,0.850513935089,,,004,mam,60.0910899997,prodShadow,2015_Jul_26_1605,midd,
distractor,apa,stim/apa.wav,0,48,48,1,,,space,0.767226219177,,,004,mam,60.0910899997,prodShadow,2015_Jul_26_1605,midd,
target,kuku,stim/kuku.wav,0,49,49,32,,,space,0.817043066025,,,004,mam,60.0910899997,prodShadow,2015_Jul_26_1605,midd,
target,taka,stim/taka.wav,1,0,50,43,,,space,0.800567865372,,,004,mam,60.0910899997,prodShadow,2015_Jul_26_1605,midd,
distractor,ada,stim/ada.wav,1,1,51,0,,,space,0.80050611496,,,004,mam,60.0910899997,prodShadow,2015_Jul_26_1605,midd,
target,boko,stim/boko.wav,1,2,52,6,,,space,1.05081105232,,,004,mam,60.0910899997,prodShadow,2015_Jul_26_1605,midd,
target,buku,stim/buku.wav,1,3,53,8,,,space,1.03412795067,,,004,mam,60.0910899997,prodShadow,2015_Jul_26_1605,midd,
pname,gota,stim/gota.wav,1,4,54,25,,,space,1.05051112175,,,004,mam,60.0910899997,prodShadow,2015_Jul_26_1605,midd,
distractor,apa,stim/apa.wav,1,5,55,1,,,space,0.900630950928,,,004,mam,60.0910899997,prodShadow,2015_Jul_26_1605,midd,
target,gaka,stim/gaka.wav,1,6,56,20,,,space,1.06739497185,,,004,mam,60.0910899997,prodShadow,2015_Jul_26_1605,midd,
target,teke,stim/teke.wav,1,7,57,44,,,space,0.833847045898,,,004,mam,60.0910899997,prodShadow,2015_Jul_26_1605,midd,
distractor,oba,stim/oba.wav,1,8,58,33,,,space,0.733858108521,,,004,mam,60.0910899997,prodShadow,2015_Jul_26_1605,midd,
target,keke,stim/keke.wav,1,9,59,29,,,space,0.700725078583,,,004,mam,60.0910899997,prodShadow,2015_Jul_26_1605,midd,
target,diki,stim/diki.wav,1,10,60,14,,,space,0.850542068481,,,004,mam,60.0910899997,prodShadow,2015_Jul_26_1605,midd,
target,daka,stim/daka.wav,1,11,61,12,,,space,0.717200994492,,,004,mam,60.0910899997,prodShadow,2015_Jul_26_1605,midd,
pname,polo,stim/polo.wav,1,12,62,40,,,space,0.88386797905,,,004,mam,60.0910899997,prodShadow,2015_Jul_26_1605,midd,
target,guku,stim/guku.wav,1,13,63,26,,,space,0.967255115509,,,004,mam,60.0910899997,prodShadow,2015_Jul_26_1605,midd,
target,beke,stim/beke.wav,1,14,64,4,,,space,1.03401589394,,,004,mam,60.0910899997,prodShadow,2015_Jul_26_1605,midd,
target,puku,stim/puku.wav,1,15,65,41,,,space,0.70064496994,,,004,mam,60.0910899997,prodShadow,2015_Jul_26_1605,midd,
distractor,ita,stim/ita.wav,1,16,66,27,,,space,0.800509929657,,,004,mam,60.0910899997,prodShadow,2015_Jul_26_1605,midd,
target,deke,stim/deke.wav,1,17,67,13,,,space,1.06703710556,,,004,mam,60.0910899997,prodShadow,2015_Jul_26_1605,midd,
target,duku,stim/duku.wav,1,18,68,17,,,space,0.867276906967,,,004,mam,60.0910899997,prodShadow,2015_Jul_26_1605,midd,
pname,bola,stim/bola.wav,1,19,69,7,,,space,0.900983095169,,,004,mam,60.0910899997,prodShadow,2015_Jul_26_1605,midd,
pname,taco,stim/taco.wav,1,20,70,42,,,space,0.767414093018,,,004,mam,60.0910899997,prodShadow,2015_Jul_26_1605,midd,
target,kaka,stim/kaka.wav,1,21,71,28,,,space,0.784075975418,,,004,mam,60.0910899997,prodShadow,2015_Jul_26_1605,midd,
target,paka,stim/paka.wav,1,22,72,35,,,space,0.600728988647,,,004,mam,60.0910899997,prodShadow,2015_Jul_26_1605,midd,
pname,dado,stim/dado.wav,1,23,73,11,,,space,0.867252111435,,,004,mam,60.0910899997,prodShadow,2015_Jul_26_1605,midd,
target,toko,stim/toko.wav,1,24,74,47,,,space,0.834012985229,,,004,mam,60.0910899997,prodShadow,2015_Jul_26_1605,midd,
distractor,epa,stim/epa.wav,1,25,75,19,,,space,0.71741104126,,,004,mam,60.0910899997,prodShadow,2015_Jul_26_1605,midd,
pname,coco,stim/coco.wav,1,26,76,10,,,space,0.867253065109,,,004,mam,60.0910899997,prodShadow,2015_Jul_26_1605,midd,
target,tiki,stim/tiki.wav,1,27,77,45,,,space,0.817452907562,,,004,mam,60.0910899997,prodShadow,2015_Jul_26_1605,midd,
target,giki,stim/giki.wav,1,28,78,23,,,space,0.767632007599,,,004,mam,60.0910899997,prodShadow,2015_Jul_26_1605,midd,
target,koko,stim/koko.wav,1,29,79,31,,,space,0.8674929142,,,004,mam,60.0910899997,prodShadow,2015_Jul_26_1605,midd,
pname,topo,stim/topo.wav,1,30,80,46,,,space,0.983868122101,,,004,mam,60.0910899997,prodShadow,2015_Jul_26_1605,midd,
pname,dodo,stim/dodo.wav,1,31,81,15,,,space,0.900569915771,,,004,mam,60.0910899997,prodShadow,2015_Jul_26_1605,midd,
target,peke,stim/peke.wav,1,32,82,37,,,space,0.617181062698,,,004,mam,60.0910899997,prodShadow,2015_Jul_26_1605,midd,
target,kuku,stim/kuku.wav,1,33,83,32,,,space,0.817589998245,,,004,mam,60.0910899997,prodShadow,2015_Jul_26_1605,midd,
target,geke,stim/geke.wav,1,34,84,22,,,space,0.950964927673,,,004,mam,60.0910899997,prodShadow,2015_Jul_26_1605,midd,
pname,bala,stim/bala.wav,1,35,85,3,,,space,0.834192991257,,,004,mam,60.0910899997,prodShadow,2015_Jul_26_1605,midd,
distractor,oka,stim/oka.wav,1,36,86,34,,,space,0.867389917374,,,004,mam,60.0910899997,prodShadow,2015_Jul_26_1605,midd,
pname,palo,stim/palo.wav,1,37,87,36,,,space,0.667313098907,,,004,mam,60.0910899997,prodShadow,2015_Jul_26_1605,midd,
target,goko,stim/goko.wav,1,38,88,24,,,space,1.08414697647,,,004,mam,60.0910899997,prodShadow,2015_Jul_26_1605,midd,
target,biki,stim/biki.wav,1,39,89,5,,,space,1.00086188316,,,004,mam,60.0910899997,prodShadow,2015_Jul_26_1605,midd,
target,poko,stim/poko.wav,1,40,90,39,,,space,0.717684030533,,,004,mam,60.0910899997,prodShadow,2015_Jul_26_1605,midd,
target,baka,stim/baka.wav,1,41,91,2,,,space,1.01723504066,,,004,mam,60.0910899997,prodShadow,2015_Jul_26_1605,midd,
target,kiki,stim/kiki.wav,1,42,92,30,,,space,0.750562906265,,,004,mam,60.0910899997,prodShadow,2015_Jul_26_1605,midd,
distractor,uta,stim/uta.wav,1,43,93,49,,,space,0.800973176956,,,004,mam,60.0910899997,prodShadow,2015_Jul_26_1605,midd,
target,tuku,stim/tuku.wav,1,44,94,48,,,space,0.700266122818,,,004,mam,60.0910899997,prodShadow,2015_Jul_26_1605,midd,
target,piki,stim/piki.wav,1,45,95,38,,,space,0.684298992157,,,004,mam,60.0910899997,prodShadow,2015_Jul_26_1605,midd,
target,doko,stim/doko.wav,1,46,96,16,,,space,0.850334882736,,,004,mam,60.0910899997,prodShadow,2015_Jul_26_1605,midd,
pname,caca,stim/caca.wav,1,47,97,9,,,space,0.800306081772,,,004,mam,60.0910899997,prodShadow,2015_Jul_26_1605,midd,
distractor,eda,stim/eda.wav,1,48,98,18,,,space,0.85054397583,,,004,mam,60.0910899997,prodShadow,2015_Jul_26_1605,midd,
pname,gato,stim/gato.wav,1,49,99,21,,,space,1.05071902275,,,004,mam,60.0910899997,prodShadow,2015_Jul_26_1605,midd,
pname,gota,stim/gota.wav,2,0,100,25,,,space,0.98391699791,,,004,mam,60.0910899997,prodShadow,2015_Jul_26_1605,midd,
target,paka,stim/paka.wav,2,1,101,35,,,space,0.717446088791,,,004,mam,60.0910899997,prodShadow,2015_Jul_26_1605,midd,
target,gaka,stim/gaka.wav,2,2,102,20,,,space,0.934087991714,,,004,mam,60.0910899997,prodShadow,2015_Jul_26_1605,midd,
pname,caca,stim/caca.wav,2,3,103,9,,,space,0.917162179947,,,004,mam,60.0910899997,prodShadow,2015_Jul_26_1605,midd,
target,beke,stim/beke.wav,2,4,104,4,,,space,1.2172191143,,,004,mam,60.0910899997,prodShadow,2015_Jul_26_1605,midd,
pname,dodo,stim/dodo.wav,2,5,105,15,,,space,0.984226942062,,,004,mam,60.0910899997,prodShadow,2015_Jul_26_1605,midd,
target,diki,stim/diki.wav,2,6,106,14,,,space,0.833555936813,,,004,mam,60.0910899997,prodShadow,2015_Jul_26_1605,midd,
pname,coco,stim/coco.wav,2,7,107,10,,,space,0.917276859283,,,004,mam,60.0910899997,prodShadow,2015_Jul_26_1605,midd,
target,biki,stim/biki.wav,2,8,108,5,,,space,1.10085701942,,,004,mam,60.0910899997,prodShadow,2015_Jul_26_1605,midd,
target,kaka,stim/kaka.wav,2,9,109,28,,,space,0.951216936111,,,004,mam,60.0910899997,prodShadow,2015_Jul_26_1605,midd,
target,tuku,stim/tuku.wav,2,10,110,48,,,space,0.951378822327,,,004,mam,60.0910899997,prodShadow,2015_Jul_26_1605,midd,
target,teke,stim/teke.wav,2,11,111,44,,,space,1.08446121216,,,004,mam,60.0910899997,prodShadow,2015_Jul_26_1605,midd,
target,koko,stim/koko.wav,2,12,112,31,,,space,0.933408021927,,,004,mam,60.0910899997,prodShadow,2015_Jul_26_1605,midd,
target,kuku,stim/kuku.wav,2,13,113,32,,,space,1.13419413567,,,004,mam,60.0910899997,prodShadow,2015_Jul_26_1605,midd,
target,boko,stim/boko.wav,2,14,114,6,,,space,1.10071897507,,,004,mam,60.0910899997,prodShadow,2015_Jul_26_1605,midd,
distractor,epa,stim/epa.wav,2,15,115,19,,,space,0.933120965958,,,004,mam,60.0910899997,prodShadow,2015_Jul_26_1605,midd,
pname,topo,stim/topo.wav,2,16,116,46,,,space,0.766875982285,,,004,mam,60.0910899997,prodShadow,2015_Jul_26_1605,midd,
target,giki,stim/giki.wav,2,17,117,23,,,space,0.8174700737,,,004,mam,60.0910899997,prodShadow,2015_Jul_26_1605,midd,
target,goko,stim/goko.wav,2,18,118,24,,,space,0.916754961014,,,004,mam,60.0910899997,prodShadow,2015_Jul_26_1605,midd,
target,peke,stim/peke.wav,2,19,119,37,,,space,0.8340280056,,,004,mam,60.0910899997,prodShadow,2015_Jul_26_1605,midd,
target,duku,stim/duku.wav,2,20,120,17,,,space,0.951207876205,,,004,mam,60.0910899997,prodShadow,2015_Jul_26_1605,midd,
target,tiki,stim/tiki.wav,2,21,121,45,,,space,0.884406089783,,,004,mam,60.0910899997,prodShadow,2015_Jul_26_1605,midd,
target,guku,stim/guku.wav,2,22,122,26,,,space,0.934517145157,,,004,mam,60.0910899997,prodShadow,2015_Jul_26_1605,midd,
target,poko,stim/poko.wav,2,23,123,39,,,space,0.899811029434,,,004,mam,60.0910899997,prodShadow,2015_Jul_26_1605,midd,
pname,gato,stim/gato.wav,2,24,124,21,,,space,1.11649990082,,,004,mam,60.0910899997,prodShadow,2015_Jul_26_1605,midd,
target,keke,stim/keke.wav,2,25,125,29,,,space,0.86724281311,,,004,mam,60.0910899997,prodShadow,2015_Jul_26_1605,midd,
distractor,uta,stim/uta.wav,2,26,126,49,,,space,0.883177995682,,,004,mam,60.0910899997,prodShadow,2015_Jul_26_1605,midd,
target,geke,stim/geke.wav,2,27,127,22,,,space,0.900214195251,,,004,mam,60.0910899997,prodShadow,2015_Jul_26_1605,midd,
target,doko,stim/doko.wav,2,28,128,16,,,space,1.01638197899,,,004,mam,60.0910899997,prodShadow,2015_Jul_26_1605,midd,
distractor,oba,stim/oba.wav,2,29,129,33,,,space,0.816675901413,,,004,mam,60.0910899997,prodShadow,2015_Jul_26_1605,midd,
target,buku,stim/buku.wav,2,30,130,8,,,space,0.901165008545,,,004,mam,60.0910899997,prodShadow,2015_Jul_26_1605,midd,
target,puku,stim/puku.wav,2,31,131,41,,,space,0.70090007782,,,004,mam,60.0910899997,prodShadow,2015_Jul_26_1605,midd,
pname,taco,stim/taco.wav,2,32,132,42,,,space,0.867329120636,,,004,mam,60.0910899997,prodShadow,2015_Jul_26_1605,midd,
pname,palo,stim/palo.wav,2,33,133,36,,,space,0.800321102142,,,004,mam,60.0910899997,prodShadow,2015_Jul_26_1605,midd,
target,piki,stim/piki.wav,2,34,134,38,,,space,0.666479110718,,,004,mam,60.0910899997,prodShadow,2015_Jul_26_1605,midd,
distractor,eda,stim/eda.wav,2,35,135,18,,,space,0.78438615799,,,004,mam,60.0910899997,prodShadow,2015_Jul_26_1605,midd,
target,daka,stim/daka.wav,2,36,136,12,,,space,0.766705989838,,,004,mam,60.0910899997,prodShadow,2015_Jul_26_1605,midd,
pname,bala,stim/bala.wav,2,37,137,3,,,space,0.817010879517,,,004,mam,60.0910899997,prodShadow,2015_Jul_26_1605,midd,
distractor,oka,stim/oka.wav,2,38,138,34,,,space,0.73361992836,,,004,mam,60.0910899997,prodShadow,2015_Jul_26_1605,midd,
target,toko,stim/toko.wav,2,39,139,47,,,space,0.73450088501,,,004,mam,60.0910899997,prodShadow,2015_Jul_26_1605,midd,
target,taka,stim/taka.wav,2,40,140,43,,,space,0.90131688118,,,004,mam,60.0910899997,prodShadow,2015_Jul_26_1605,midd,
distractor,ita,stim/ita.wav,2,41,141,27,,,space,0.784387111664,,,004,mam,60.0910899997,prodShadow,2015_Jul_26_1605,midd,
pname,dado,stim/dado.wav,2,42,142,11,,,space,0.899847984314,,,004,mam,60.0910899997,prodShadow,2015_Jul_26_1605,midd,
target,kiki,stim/kiki.wav,2,43,143,30,,,space,0.716761112213,,,004,mam,60.0910899997,prodShadow,2015_Jul_26_1605,midd,
target,deke,stim/deke.wav,2,44,144,13,,,space,0.850292921066,,,004,mam,60.0910899997,prodShadow,2015_Jul_26_1605,midd,
pname,polo,stim/polo.wav,2,45,145,40,,,space,0.734625101089,,,004,mam,60.0910899997,prodShadow,2015_Jul_26_1605,midd,
distractor,ada,stim/ada.wav,2,46,146,0,,,space,0.750874996185,,,004,mam,60.0910899997,prodShadow,2015_Jul_26_1605,midd,
pname,bola,stim/bola.wav,2,47,147,7,,,space,0.984673976898,,,004,mam,60.0910899997,prodShadow,2015_Jul_26_1605,midd,
target,baka,stim/baka.wav,2,48,148,2,,,space,1.00068187714,,,004,mam,60.0910899997,prodShadow,2015_Jul_26_1605,midd,
distractor,apa,stim/apa.wav,2,49,149,1,,,space,0.867123126984,,,004,mam,60.0910899997,prodShadow,2015_Jul_26_1605,midd,
,,,,,,,,,,,space,29.4695968628,004,mam,60.0910899997,prodShadow,2015_Jul_26_1605,midd,
