status,text,stim,trials.thisRepN,trials.thisTrialN,trials.thisN,trials.thisIndex,key_resp_3.keys,key_resp_3.rt,key_resp_2.keys,key_resp_2.rt,key_resp_4.keys,key_resp_4.rt,session,participant,frameRate,expName,date,condition,
,,,,,,,space,1.16739797592,,,,,005,blr,59.8880856477,prodShadow,2015_Aug_02_1515,midd,
target,piki,stim/piki.wav,0,0,0,38,,,space,2.43399000168,,,005,blr,59.8880856477,prodShadow,2015_Aug_02_1515,midd,
distractor,ada,stim/ada.wav,0,1,1,0,,,space,1.71746993065,,,005,blr,59.8880856477,prodShadow,2015_Aug_02_1515,midd,
pname,bala,stim/bala.wav,0,2,2,3,,,space,1.35059905052,,,005,blr,59.8880856477,prodShadow,2015_Aug_02_1515,midd,
target,paka,stim/paka.wav,0,3,3,35,,,space,1.06701898575,,,005,blr,59.8880856477,prodShadow,2015_Aug_02_1515,midd,
target,poko,stim/poko.wav,0,4,4,39,,,space,1.1006269455,,,005,blr,59.8880856477,prodShadow,2015_Aug_02_1515,midd,
target,peke,stim/peke.wav,0,5,5,37,,,space,0.917567968369,,,005,blr,59.8880856477,prodShadow,2015_Aug_02_1515,midd,
distractor,eda,stim/eda.wav,0,6,6,18,,,space,1.01743817329,,,005,blr,59.8880856477,prodShadow,2015_Aug_02_1515,midd,
pname,caca,stim/caca.wav,0,7,7,9,,,space,1.0677280426,,,005,blr,59.8880856477,prodShadow,2015_Aug_02_1515,midd,
pname,taco,stim/taco.wav,0,8,8,42,,,space,0.984223127365,,,005,blr,59.8880856477,prodShadow,2015_Aug_02_1515,midd,
target,guku,stim/guku.wav,0,9,9,26,,,space,0.950821876526,,,005,blr,59.8880856477,prodShadow,2015_Aug_02_1515,midd,
target,kaka,stim/kaka.wav,0,10,10,28,,,space,0.917386054993,,,005,blr,59.8880856477,prodShadow,2015_Aug_02_1515,midd,
target,koko,stim/koko.wav,0,11,11,31,,,space,1.11742210388,,,005,blr,59.8880856477,prodShadow,2015_Aug_02_1515,midd,
target,duku,stim/duku.wav,0,12,12,17,,,space,1.06737208366,,,005,blr,59.8880856477,prodShadow,2015_Aug_02_1515,midd,
distractor,uta,stim/uta.wav,0,13,13,49,,,space,1.01760005951,,,005,blr,59.8880856477,prodShadow,2015_Aug_02_1515,midd,
distractor,apa,stim/apa.wav,0,14,14,1,,,space,1.16727185249,,,005,blr,59.8880856477,prodShadow,2015_Aug_02_1515,midd,
distractor,oka,stim/oka.wav,0,15,15,34,,,space,1.41754412651,,,005,blr,59.8880856477,prodShadow,2015_Aug_02_1515,midd,
target,teke,stim/teke.wav,0,16,16,44,,,space,1.13442778587,,,005,blr,59.8880856477,prodShadow,2015_Aug_02_1515,midd,
target,gaka,stim/gaka.wav,0,17,17,20,,,space,1.25096416473,,,005,blr,59.8880856477,prodShadow,2015_Aug_02_1515,midd,
target,boko,stim/boko.wav,0,18,18,6,,,space,1.45068216324,,,005,blr,59.8880856477,prodShadow,2015_Aug_02_1515,midd,
target,giki,stim/giki.wav,0,19,19,23,,,space,1.21744799614,,,005,blr,59.8880856477,prodShadow,2015_Aug_02_1515,midd,
target,keke,stim/keke.wav,0,20,20,29,,,space,1.28411102295,,,005,blr,59.8880856477,prodShadow,2015_Aug_02_1515,midd,
target,goko,stim/goko.wav,0,21,21,24,,,space,0.683732032776,,,005,blr,59.8880856477,prodShadow,2015_Aug_02_1515,midd,
target,diki,stim/diki.wav,0,22,22,14,,,space,1.08461499214,,,005,blr,59.8880856477,prodShadow,2015_Aug_02_1515,midd,
pname,palo,stim/palo.wav,0,23,23,36,,,space,1.10065197945,,,005,blr,59.8880856477,prodShadow,2015_Aug_02_1515,midd,
target,kiki,stim/kiki.wav,0,24,24,30,,,space,1.03389000893,,,005,blr,59.8880856477,prodShadow,2015_Aug_02_1515,midd,
target,tiki,stim/tiki.wav,0,25,25,45,,,space,0.800759077072,,,005,blr,59.8880856477,prodShadow,2015_Aug_02_1515,midd,
distractor,ita,stim/ita.wav,0,26,26,27,,,space,1.05068016052,,,005,blr,59.8880856477,prodShadow,2015_Aug_02_1515,midd,
pname,dodo,stim/dodo.wav,0,27,27,15,,,space,0.900454044342,,,005,blr,59.8880856477,prodShadow,2015_Aug_02_1515,midd,
target,deke,stim/deke.wav,0,28,28,13,,,space,1.71753001213,,,005,blr,59.8880856477,prodShadow,2015_Aug_02_1515,midd,
target,biki,stim/biki.wav,0,29,29,5,,,space,1.31704902649,,,005,blr,59.8880856477,prodShadow,2015_Aug_02_1515,midd,
target,baka,stim/baka.wav,0,30,30,2,,,space,1.53413701057,,,005,blr,59.8880856477,prodShadow,2015_Aug_02_1515,midd,
pname,polo,stim/polo.wav,0,31,31,40,,,space,1.13392591476,,,005,blr,59.8880856477,prodShadow,2015_Aug_02_1515,midd,
pname,bola,stim/bola.wav,0,32,32,7,,,space,1.26729989052,,,005,blr,59.8880856477,prodShadow,2015_Aug_02_1515,midd,
distractor,epa,stim/epa.wav,0,33,33,19,,,space,0.933791160583,,,005,blr,59.8880856477,prodShadow,2015_Aug_02_1515,midd,
pname,coco,stim/coco.wav,0,34,34,10,,,space,1.11749601364,,,005,blr,59.8880856477,prodShadow,2015_Aug_02_1515,midd,
target,tuku,stim/tuku.wav,0,35,35,48,,,space,1.20063614845,,,005,blr,59.8880856477,prodShadow,2015_Aug_02_1515,midd,
target,daka,stim/daka.wav,0,36,36,12,,,space,1.0672750473,,,005,blr,59.8880856477,prodShadow,2015_Aug_02_1515,midd,
distractor,oba,stim/oba.wav,0,37,37,33,,,space,1.00083422661,,,005,blr,59.8880856477,prodShadow,2015_Aug_02_1515,midd,
target,geke,stim/geke.wav,0,38,38,22,,,space,1.10078907013,,,005,blr,59.8880856477,prodShadow,2015_Aug_02_1515,midd,
target,toko,stim/toko.wav,0,39,39,47,,,space,0.833861112595,,,005,blr,59.8880856477,prodShadow,2015_Aug_02_1515,midd,
target,buku,stim/buku.wav,0,40,40,8,,,space,1.10086512566,,,005,blr,59.8880856477,prodShadow,2015_Aug_02_1515,midd,
target,doko,stim/doko.wav,0,41,41,16,,,space,1.2340528965,,,005,blr,59.8880856477,prodShadow,2015_Aug_02_1515,midd,
target,puku,stim/puku.wav,0,42,42,41,,,space,0.917068004608,,,005,blr,59.8880856477,prodShadow,2015_Aug_02_1515,midd,
pname,topo,stim/topo.wav,0,43,43,46,,,space,0.784744024277,,,005,blr,59.8880856477,prodShadow,2015_Aug_02_1515,midd,
target,taka,stim/taka.wav,0,44,44,43,,,space,1.01712203026,,,005,blr,59.8880856477,prodShadow,2015_Aug_02_1515,midd,
target,kuku,stim/kuku.wav,0,45,45,32,,,space,0.983999013901,,,005,blr,59.8880856477,prodShadow,2015_Aug_02_1515,midd,
pname,dado,stim/dado.wav,0,46,46,11,,,space,1.11768603325,,,005,blr,59.8880856477,prodShadow,2015_Aug_02_1515,midd,
pname,gato,stim/gato.wav,0,47,47,21,,,space,1.15074110031,,,005,blr,59.8880856477,prodShadow,2015_Aug_02_1515,midd,
pname,gota,stim/gota.wav,0,48,48,25,,,space,1.11727499962,,,005,blr,59.8880856477,prodShadow,2015_Aug_02_1515,midd,
target,beke,stim/beke.wav,0,49,49,4,,,space,1.53409600258,,,005,blr,59.8880856477,prodShadow,2015_Aug_02_1515,midd,
target,guku,stim/guku.wav,1,0,50,26,,,space,1.40087890625,,,005,blr,59.8880856477,prodShadow,2015_Aug_02_1515,midd,
target,poko,stim/poko.wav,1,1,51,39,,,space,0.917196989059,,,005,blr,59.8880856477,prodShadow,2015_Aug_02_1515,midd,
target,keke,stim/keke.wav,1,2,52,29,,,space,1.7341401577,,,005,blr,59.8880856477,prodShadow,2015_Aug_02_1515,midd,
target,boko,stim/boko.wav,1,3,53,6,,,space,1.71736717224,,,005,blr,59.8880856477,prodShadow,2015_Aug_02_1515,midd,
target,piki,stim/piki.wav,1,4,54,38,,,space,1.817278862,,,005,blr,59.8880856477,prodShadow,2015_Aug_02_1515,midd,
target,buku,stim/buku.wav,1,5,55,8,,,space,1.73392009735,,,005,blr,59.8880856477,prodShadow,2015_Aug_02_1515,midd,
distractor,apa,stim/apa.wav,1,6,56,1,,,space,1.6006500721,,,005,blr,59.8880856477,prodShadow,2015_Aug_02_1515,midd,
target,goko,stim/goko.wav,1,7,57,24,,,space,1.63400888443,,,005,blr,59.8880856477,prodShadow,2015_Aug_02_1515,midd,
distractor,oba,stim/oba.wav,1,8,58,33,,,space,1.58398389816,,,005,blr,59.8880856477,prodShadow,2015_Aug_02_1515,midd,
pname,caca,stim/caca.wav,1,9,59,9,,,space,1.61729001999,,,005,blr,59.8880856477,prodShadow,2015_Aug_02_1515,midd,
target,toko,stim/toko.wav,1,10,60,47,,,space,1.58422899246,,,005,blr,59.8880856477,prodShadow,2015_Aug_02_1515,midd,
target,daka,stim/daka.wav,1,11,61,12,,,space,1.76760101318,,,005,blr,59.8880856477,prodShadow,2015_Aug_02_1515,midd,
distractor,ita,stim/ita.wav,1,12,62,27,,,space,1.60100102425,,,005,blr,59.8880856477,prodShadow,2015_Aug_02_1515,midd,
pname,coco,stim/coco.wav,1,13,63,10,,,space,1.55099201202,,,005,blr,59.8880856477,prodShadow,2015_Aug_02_1515,midd,
pname,topo,stim/topo.wav,1,14,64,46,,,space,1.28426003456,,,005,blr,59.8880856477,prodShadow,2015_Aug_02_1515,midd,
target,deke,stim/deke.wav,1,15,65,13,,,space,1.51749682426,,,005,blr,59.8880856477,prodShadow,2015_Aug_02_1515,midd,
target,doko,stim/doko.wav,1,16,66,16,,,space,1.56747603416,,,005,blr,59.8880856477,prodShadow,2015_Aug_02_1515,midd,
target,koko,stim/koko.wav,1,17,67,31,,,space,1.50075507164,,,005,blr,59.8880856477,prodShadow,2015_Aug_02_1515,midd,
distractor,epa,stim/epa.wav,1,18,68,19,,,space,1.18418312073,,,005,blr,59.8880856477,prodShadow,2015_Aug_02_1515,midd,
target,beke,stim/beke.wav,1,19,69,4,,,space,1.36743211746,,,005,blr,59.8880856477,prodShadow,2015_Aug_02_1515,midd,
pname,palo,stim/palo.wav,1,20,70,36,,,space,1.16740107536,,,005,blr,59.8880856477,prodShadow,2015_Aug_02_1515,midd,
distractor,ada,stim/ada.wav,1,21,71,0,,,space,1.08401083946,,,005,blr,59.8880856477,prodShadow,2015_Aug_02_1515,midd,
pname,gota,stim/gota.wav,1,22,72,25,,,space,1.3009428978,,,005,blr,59.8880856477,prodShadow,2015_Aug_02_1515,midd,
pname,taco,stim/taco.wav,1,23,73,42,,,space,1.20057797432,,,005,blr,59.8880856477,prodShadow,2015_Aug_02_1515,midd,
pname,dado,stim/dado.wav,1,24,74,11,,,space,1.03423309326,,,005,blr,59.8880856477,prodShadow,2015_Aug_02_1515,midd,
target,diki,stim/diki.wav,1,25,75,14,,,space,1.33395195007,,,005,blr,59.8880856477,prodShadow,2015_Aug_02_1515,midd,
distractor,oka,stim/oka.wav,1,26,76,34,,,space,1.31729006767,,,005,blr,59.8880856477,prodShadow,2015_Aug_02_1515,midd,
target,baka,stim/baka.wav,1,27,77,2,,,space,1.50109291077,,,005,blr,59.8880856477,prodShadow,2015_Aug_02_1515,midd,
target,giki,stim/giki.wav,1,28,78,23,,,space,1.31720590591,,,005,blr,59.8880856477,prodShadow,2015_Aug_02_1515,midd,
target,biki,stim/biki.wav,1,29,79,5,,,space,1.43371391296,,,005,blr,59.8880856477,prodShadow,2015_Aug_02_1515,midd,
target,tiki,stim/tiki.wav,1,30,80,45,,,space,1.16715502739,,,005,blr,59.8880856477,prodShadow,2015_Aug_02_1515,midd,
target,peke,stim/peke.wav,1,31,81,37,,,space,1.06767201424,,,005,blr,59.8880856477,prodShadow,2015_Aug_02_1515,midd,
target,kaka,stim/kaka.wav,1,32,82,28,,,space,1.26758694649,,,005,blr,59.8880856477,prodShadow,2015_Aug_02_1515,midd,
target,paka,stim/paka.wav,1,33,83,35,,,space,1.25070214272,,,005,blr,59.8880856477,prodShadow,2015_Aug_02_1515,midd,
target,teke,stim/teke.wav,1,34,84,44,,,space,1.08439707756,,,005,blr,59.8880856477,prodShadow,2015_Aug_02_1515,midd,
target,duku,stim/duku.wav,1,35,85,17,,,space,1.28407716751,,,005,blr,59.8880856477,prodShadow,2015_Aug_02_1515,midd,
pname,dodo,stim/dodo.wav,1,36,86,15,,,space,1.18392395973,,,005,blr,59.8880856477,prodShadow,2015_Aug_02_1515,midd,
pname,bola,stim/bola.wav,1,37,87,7,,,space,1.25057411194,,,005,blr,59.8880856477,prodShadow,2015_Aug_02_1515,midd,
pname,polo,stim/polo.wav,1,38,88,40,,,space,1.16735005379,,,005,blr,59.8880856477,prodShadow,2015_Aug_02_1515,midd,
pname,bala,stim/bala.wav,1,39,89,3,,,space,1.11738300323,,,005,blr,59.8880856477,prodShadow,2015_Aug_02_1515,midd,
target,puku,stim/puku.wav,1,40,90,41,,,space,1.16721582413,,,005,blr,59.8880856477,prodShadow,2015_Aug_02_1515,midd,
target,kiki,stim/kiki.wav,1,41,91,30,,,space,1.45078086853,,,005,blr,59.8880856477,prodShadow,2015_Aug_02_1515,midd,
distractor,eda,stim/eda.wav,1,42,92,18,,,space,1.233948946,,,005,blr,59.8880856477,prodShadow,2015_Aug_02_1515,midd,
target,kuku,stim/kuku.wav,1,43,93,32,,,space,1.25054907799,,,005,blr,59.8880856477,prodShadow,2015_Aug_02_1515,midd,
distractor,uta,stim/uta.wav,1,44,94,49,,,space,1.21726989746,,,005,blr,59.8880856477,prodShadow,2015_Aug_02_1515,midd,
target,gaka,stim/gaka.wav,1,45,95,20,,,space,1.18422698975,,,005,blr,59.8880856477,prodShadow,2015_Aug_02_1515,midd,
target,taka,stim/taka.wav,1,46,96,43,,,space,1.31747484207,,,005,blr,59.8880856477,prodShadow,2015_Aug_02_1515,midd,
target,tuku,stim/tuku.wav,1,47,97,48,,,space,1.16759300232,,,005,blr,59.8880856477,prodShadow,2015_Aug_02_1515,midd,
target,geke,stim/geke.wav,1,48,98,22,,,space,1.21738004684,,,005,blr,59.8880856477,prodShadow,2015_Aug_02_1515,midd,
pname,gato,stim/gato.wav,1,49,99,21,,,space,1.48432898521,,,005,blr,59.8880856477,prodShadow,2015_Aug_02_1515,midd,
target,gaka,stim/gaka.wav,2,0,100,20,,,space,1.40065217018,,,005,blr,59.8880856477,prodShadow,2015_Aug_02_1515,midd,
target,poko,stim/poko.wav,2,1,101,39,,,space,1.0837957859,,,005,blr,59.8880856477,prodShadow,2015_Aug_02_1515,midd,
target,boko,stim/boko.wav,2,2,102,6,,,space,1.51733803749,,,005,blr,59.8880856477,prodShadow,2015_Aug_02_1515,midd,
target,beke,stim/beke.wav,2,3,103,4,,,space,1.70123410225,,,005,blr,59.8880856477,prodShadow,2015_Aug_02_1515,midd,
target,peke,stim/peke.wav,2,4,104,37,,,space,1.98408198357,,,005,blr,59.8880856477,prodShadow,2015_Aug_02_1515,midd,
distractor,oka,stim/oka.wav,2,5,105,34,,,space,1.45099687576,,,005,blr,59.8880856477,prodShadow,2015_Aug_02_1515,midd,
distractor,oba,stim/oba.wav,2,6,106,33,,,space,1.41703009605,,,005,blr,59.8880856477,prodShadow,2015_Aug_02_1515,midd,
target,toko,stim/toko.wav,2,7,107,47,,,space,1.23412299156,,,005,blr,59.8880856477,prodShadow,2015_Aug_02_1515,midd,
distractor,epa,stim/epa.wav,2,8,108,19,,,space,1.1507191658,,,005,blr,59.8880856477,prodShadow,2015_Aug_02_1515,midd,
pname,gota,stim/gota.wav,2,9,109,25,,,space,1.46723389626,,,005,blr,59.8880856477,prodShadow,2015_Aug_02_1515,midd,
target,kaka,stim/kaka.wav,2,10,110,28,,,space,1.26716303825,,,005,blr,59.8880856477,prodShadow,2015_Aug_02_1515,midd,
pname,coco,stim/coco.wav,2,11,111,10,,,space,1.25093102455,,,005,blr,59.8880856477,prodShadow,2015_Aug_02_1515,midd,
target,teke,stim/teke.wav,2,12,112,44,,,space,1.20088505745,,,005,blr,59.8880856477,prodShadow,2015_Aug_02_1515,midd,
target,tiki,stim/tiki.wav,2,13,113,45,,,space,1.05049705505,,,005,blr,59.8880856477,prodShadow,2015_Aug_02_1515,midd,
pname,topo,stim/topo.wav,2,14,114,46,,,space,0.967303037643,,,005,blr,59.8880856477,prodShadow,2015_Aug_02_1515,midd,
distractor,ita,stim/ita.wav,2,15,115,27,,,space,1.21750092506,,,005,blr,59.8880856477,prodShadow,2015_Aug_02_1515,midd,
pname,palo,stim/palo.wav,2,16,116,36,,,space,1.00059890747,,,005,blr,59.8880856477,prodShadow,2015_Aug_02_1515,midd,
pname,bala,stim/bala.wav,2,17,117,3,,,space,1.18403983116,,,005,blr,59.8880856477,prodShadow,2015_Aug_02_1515,midd,
target,paka,stim/paka.wav,2,18,118,35,,,space,1.46753907204,,,005,blr,59.8880856477,prodShadow,2015_Aug_02_1515,midd,
distractor,apa,stim/apa.wav,2,19,119,1,,,space,1.31743907928,,,005,blr,59.8880856477,prodShadow,2015_Aug_02_1515,midd,
target,goko,stim/goko.wav,2,20,120,24,,,space,1.41727399826,,,005,blr,59.8880856477,prodShadow,2015_Aug_02_1515,midd,
target,piki,stim/piki.wav,2,21,121,38,,,space,1.2506711483,,,005,blr,59.8880856477,prodShadow,2015_Aug_02_1515,midd,
target,doko,stim/doko.wav,2,22,122,16,,,space,1.45064282417,,,005,blr,59.8880856477,prodShadow,2015_Aug_02_1515,midd,
target,puku,stim/puku.wav,2,23,123,41,,,space,1.21734809875,,,005,blr,59.8880856477,prodShadow,2015_Aug_02_1515,midd,
target,biki,stim/biki.wav,2,24,124,5,,,space,1.60109996796,,,005,blr,59.8880856477,prodShadow,2015_Aug_02_1515,midd,
pname,gato,stim/gato.wav,2,25,125,21,,,space,1.48424196243,,,005,blr,59.8880856477,prodShadow,2015_Aug_02_1515,midd,
target,kiki,stim/kiki.wav,2,26,126,30,,,space,1.16742706299,,,005,blr,59.8880856477,prodShadow,2015_Aug_02_1515,midd,
distractor,uta,stim/uta.wav,2,27,127,49,,,space,1.25086593628,,,005,blr,59.8880856477,prodShadow,2015_Aug_02_1515,midd,
target,taka,stim/taka.wav,2,28,128,43,,,space,1.06751179695,,,005,blr,59.8880856477,prodShadow,2015_Aug_02_1515,midd,
target,geke,stim/geke.wav,2,29,129,22,,,space,1.23422789574,,,005,blr,59.8880856477,prodShadow,2015_Aug_02_1515,midd,
target,koko,stim/koko.wav,2,30,130,31,,,space,1.18419003487,,,005,blr,59.8880856477,prodShadow,2015_Aug_02_1515,midd,
target,kuku,stim/kuku.wav,2,31,131,32,,,space,1.13404202461,,,005,blr,59.8880856477,prodShadow,2015_Aug_02_1515,midd,
pname,bola,stim/bola.wav,2,32,132,7,,,space,1.30079698563,,,005,blr,59.8880856477,prodShadow,2015_Aug_02_1515,midd,
target,duku,stim/duku.wav,2,33,133,17,,,space,1.18398118019,,,005,blr,59.8880856477,prodShadow,2015_Aug_02_1515,midd,
target,tuku,stim/tuku.wav,2,34,134,48,,,space,1.16760993004,,,005,blr,59.8880856477,prodShadow,2015_Aug_02_1515,midd,
target,daka,stim/daka.wav,2,35,135,12,,,space,0.934123039246,,,005,blr,59.8880856477,prodShadow,2015_Aug_02_1515,midd,
pname,caca,stim/caca.wav,2,36,136,9,,,space,1.26728010178,,,005,blr,59.8880856477,prodShadow,2015_Aug_02_1515,midd,
distractor,eda,stim/eda.wav,2,37,137,18,,,space,1.41786193848,,,005,blr,59.8880856477,prodShadow,2015_Aug_02_1515,midd,
pname,taco,stim/taco.wav,2,38,138,42,,,space,1.35075807571,,,005,blr,59.8880856477,prodShadow,2015_Aug_02_1515,midd,
target,diki,stim/diki.wav,2,39,139,14,,,space,1.5673160553,,,005,blr,59.8880856477,prodShadow,2015_Aug_02_1515,midd,
target,deke,stim/deke.wav,2,40,140,13,,,space,1.41773915291,,,005,blr,59.8880856477,prodShadow,2015_Aug_02_1515,midd,
target,buku,stim/buku.wav,2,41,141,8,,,space,1.33403587341,,,005,blr,59.8880856477,prodShadow,2015_Aug_02_1515,midd,
distractor,ada,stim/ada.wav,2,42,142,0,,,space,1.18437314034,,,005,blr,59.8880856477,prodShadow,2015_Aug_02_1515,midd,
pname,dado,stim/dado.wav,2,43,143,11,,,space,1.48425388336,,,005,blr,59.8880856477,prodShadow,2015_Aug_02_1515,midd,
target,giki,stim/giki.wav,2,44,144,23,,,space,1.10076618195,,,005,blr,59.8880856477,prodShadow,2015_Aug_02_1515,midd,
pname,dodo,stim/dodo.wav,2,45,145,15,,,space,1.18385386467,,,005,blr,59.8880856477,prodShadow,2015_Aug_02_1515,midd,
target,keke,stim/keke.wav,2,46,146,29,,,space,0.917319059372,,,005,blr,59.8880856477,prodShadow,2015_Aug_02_1515,midd,
pname,polo,stim/polo.wav,2,47,147,40,,,space,0.850828886032,,,005,blr,59.8880856477,prodShadow,2015_Aug_02_1515,midd,
target,baka,stim/baka.wav,2,48,148,2,,,space,1.11735606194,,,005,blr,59.8880856477,prodShadow,2015_Aug_02_1515,midd,
target,guku,stim/guku.wav,2,49,149,26,,,space,1.15054488182,,,005,blr,59.8880856477,prodShadow,2015_Aug_02_1515,midd,
,,,,,,,,,,,space,41.7056901455,005,blr,59.8880856477,prodShadow,2015_Aug_02_1515,midd,
