status,text,stim,trials.thisRepN,trials.thisTrialN,trials.thisN,trials.thisIndex,key_resp_3.keys,key_resp_3.rt,key_resp_2.keys,key_resp_2.rt,key_resp_4.keys,key_resp_4.rt,session,participant,frameRate,expName,date,condition,
,,,,,,,space,2.63382101059,,,,,006,jal,59.9559725772,prodShadow,2015_Aug_09_1325,midd,
target,piki,stim/piki.wav,0,0,0,38,,,space,1.51734805107,,,006,jal,59.9559725772,prodShadow,2015_Aug_09_1325,midd,
target,kaka,stim/kaka.wav,0,1,1,28,,,space,1.26720881462,,,006,jal,59.9559725772,prodShadow,2015_Aug_09_1325,midd,
distractor,uta,stim/uta.wav,0,2,2,49,,,space,0.88365483284,,,006,jal,59.9559725772,prodShadow,2015_Aug_09_1325,midd,
pname,bala,stim/bala.wav,0,3,3,3,,,space,1.03403401375,,,006,jal,59.9559725772,prodShadow,2015_Aug_09_1325,midd,
target,tiki,stim/tiki.wav,0,4,4,45,,,space,0.783906936646,,,006,jal,59.9559725772,prodShadow,2015_Aug_09_1325,midd,
target,gaka,stim/gaka.wav,0,5,5,20,,,space,1.08382105827,,,006,jal,59.9559725772,prodShadow,2015_Aug_09_1325,midd,
target,boko,stim/boko.wav,0,6,6,6,,,space,1.01789093018,,,006,jal,59.9559725772,prodShadow,2015_Aug_09_1325,midd,
target,giki,stim/giki.wav,0,7,7,23,,,space,0.734164953232,,,006,jal,59.9559725772,prodShadow,2015_Aug_09_1325,midd,
target,beke,stim/beke.wav,0,8,8,4,,,space,1.15091300011,,,006,jal,59.9559725772,prodShadow,2015_Aug_09_1325,midd,
pname,palo,stim/palo.wav,0,9,9,36,,,space,0.834105014801,,,006,jal,59.9559725772,prodShadow,2015_Aug_09_1325,midd,
distractor,ita,stim/ita.wav,0,10,10,27,,,space,0.283915996552,,,006,jal,59.9559725772,prodShadow,2015_Aug_09_1325,midd,
target,geke,stim/geke.wav,0,11,11,22,,,space,0.766372203827,,,006,jal,59.9559725772,prodShadow,2015_Aug_09_1325,midd,
distractor,oba,stim/oba.wav,0,12,12,33,,,space,0.800479888916,,,006,jal,59.9559725772,prodShadow,2015_Aug_09_1325,midd,
target,guku,stim/guku.wav,0,13,13,26,,,space,1.81617903709,,,006,jal,59.9559725772,prodShadow,2015_Aug_09_1325,midd,
distractor,oka,stim/oka.wav,0,14,14,34,,,space,0.80033993721,,,006,jal,59.9559725772,prodShadow,2015_Aug_09_1325,midd,
target,toko,stim/toko.wav,0,15,15,47,,,space,0.700131893158,,,006,jal,59.9559725772,prodShadow,2015_Aug_09_1325,midd,
target,biki,stim/biki.wav,0,16,16,5,,,space,0.933542013168,,,006,jal,59.9559725772,prodShadow,2015_Aug_09_1325,midd,
target,teke,stim/teke.wav,0,17,17,44,,,space,0.600411176682,,,006,jal,59.9559725772,prodShadow,2015_Aug_09_1325,midd,
distractor,epa,stim/epa.wav,0,18,18,19,,,space,0.516695022583,,,006,jal,59.9559725772,prodShadow,2015_Aug_09_1325,midd,
target,goko,stim/goko.wav,0,19,19,24,,,space,0.701358795166,,,006,jal,59.9559725772,prodShadow,2015_Aug_09_1325,midd,
pname,gato,stim/gato.wav,0,20,20,21,,,space,1.05149388313,,,006,jal,59.9559725772,prodShadow,2015_Aug_09_1325,midd,
pname,coco,stim/coco.wav,0,21,21,10,,,space,0.834589958191,,,006,jal,59.9559725772,prodShadow,2015_Aug_09_1325,midd,
target,diki,stim/diki.wav,0,22,22,14,,,space,0.816679000854,,,006,jal,59.9559725772,prodShadow,2015_Aug_09_1325,midd,
target,buku,stim/buku.wav,0,23,23,8,,,space,0.717280864716,,,006,jal,59.9559725772,prodShadow,2015_Aug_09_1325,midd,
target,poko,stim/poko.wav,0,24,24,39,,,space,0.550420045853,,,006,jal,59.9559725772,prodShadow,2015_Aug_09_1325,midd,
pname,topo,stim/topo.wav,0,25,25,46,,,space,0.833429813385,,,006,jal,59.9559725772,prodShadow,2015_Aug_09_1325,midd,
target,paka,stim/paka.wav,0,26,26,35,,,space,0.750041007996,,,006,jal,59.9559725772,prodShadow,2015_Aug_09_1325,midd,
target,baka,stim/baka.wav,0,27,27,2,,,space,0.717926979065,,,006,jal,59.9559725772,prodShadow,2015_Aug_09_1325,midd,
pname,dado,stim/dado.wav,0,28,28,11,,,space,0.883707046509,,,006,jal,59.9559725772,prodShadow,2015_Aug_09_1325,midd,
target,taka,stim/taka.wav,0,29,29,43,,,space,0.900297880173,,,006,jal,59.9559725772,prodShadow,2015_Aug_09_1325,midd,
target,puku,stim/puku.wav,0,30,30,41,,,space,0.833775043488,,,006,jal,59.9559725772,prodShadow,2015_Aug_09_1325,midd,
target,duku,stim/duku.wav,0,31,31,17,,,space,0.850424051285,,,006,jal,59.9559725772,prodShadow,2015_Aug_09_1325,midd,
distractor,eda,stim/eda.wav,0,32,32,18,,,space,0.784873008728,,,006,jal,59.9559725772,prodShadow,2015_Aug_09_1325,midd,
target,kuku,stim/kuku.wav,0,33,33,32,,,space,0.567234992981,,,006,jal,59.9559725772,prodShadow,2015_Aug_09_1325,midd,
target,tuku,stim/tuku.wav,0,34,34,48,,,space,0.550498962402,,,006,jal,59.9559725772,prodShadow,2015_Aug_09_1325,midd,
distractor,apa,stim/apa.wav,0,35,35,1,,,space,0.617524862289,,,006,jal,59.9559725772,prodShadow,2015_Aug_09_1325,midd,
target,daka,stim/daka.wav,0,36,36,12,,,space,0.750417947769,,,006,jal,59.9559725772,prodShadow,2015_Aug_09_1325,midd,
pname,polo,stim/polo.wav,0,37,37,40,,,space,0.649556159973,,,006,jal,59.9559725772,prodShadow,2015_Aug_09_1325,midd,
pname,caca,stim/caca.wav,0,38,38,9,,,space,0.633363008499,,,006,jal,59.9559725772,prodShadow,2015_Aug_09_1325,midd,
distractor,ada,stim/ada.wav,0,39,39,0,,,space,0.516866922379,,,006,jal,59.9559725772,prodShadow,2015_Aug_09_1325,midd,
pname,dodo,stim/dodo.wav,0,40,40,15,,,space,0.651866912842,,,006,jal,59.9559725772,prodShadow,2015_Aug_09_1325,midd,
target,deke,stim/deke.wav,0,41,41,13,,,space,1.0004940033,,,006,jal,59.9559725772,prodShadow,2015_Aug_09_1325,midd,
pname,bola,stim/bola.wav,0,42,42,7,,,space,0.350301980972,,,006,jal,59.9559725772,prodShadow,2015_Aug_09_1325,midd,
target,koko,stim/koko.wav,0,43,43,31,,,space,0.734339952469,,,006,jal,59.9559725772,prodShadow,2015_Aug_09_1325,midd,
target,kiki,stim/kiki.wav,0,44,44,30,,,space,0.634448051453,,,006,jal,59.9559725772,prodShadow,2015_Aug_09_1325,midd,
pname,gota,stim/gota.wav,0,45,45,25,,,space,0.834101915359,,,006,jal,59.9559725772,prodShadow,2015_Aug_09_1325,midd,
pname,taco,stim/taco.wav,0,46,46,42,,,space,0.684010028839,,,006,jal,59.9559725772,prodShadow,2015_Aug_09_1325,midd,
target,keke,stim/keke.wav,0,47,47,29,,,space,0.567077875137,,,006,jal,59.9559725772,prodShadow,2015_Aug_09_1325,midd,
target,doko,stim/doko.wav,0,48,48,16,,,space,0.866874933243,,,006,jal,59.9559725772,prodShadow,2015_Aug_09_1325,midd,
target,peke,stim/peke.wav,0,49,49,37,,,space,0.65031003952,,,006,jal,59.9559725772,prodShadow,2015_Aug_09_1325,midd,
distractor,apa,stim/apa.wav,1,0,50,1,,,space,0.567853927612,,,006,jal,59.9559725772,prodShadow,2015_Aug_09_1325,midd,
pname,caca,stim/caca.wav,1,1,51,9,,,space,0.550489902496,,,006,jal,59.9559725772,prodShadow,2015_Aug_09_1325,midd,
target,tiki,stim/tiki.wav,1,2,52,45,,,space,0.484100103378,,,006,jal,59.9559725772,prodShadow,2015_Aug_09_1325,midd,
target,boko,stim/boko.wav,1,3,53,6,,,space,0.600160837173,,,006,jal,59.9559725772,prodShadow,2015_Aug_09_1325,midd,
pname,coco,stim/coco.wav,1,4,54,10,,,space,0.767384052277,,,006,jal,59.9559725772,prodShadow,2015_Aug_09_1325,midd,
target,puku,stim/puku.wav,1,5,55,41,,,space,0.634169101715,,,006,jal,59.9559725772,prodShadow,2015_Aug_09_1325,midd,
target,koko,stim/koko.wav,1,6,56,31,,,space,0.684415102005,,,006,jal,59.9559725772,prodShadow,2015_Aug_09_1325,midd,
target,biki,stim/biki.wav,1,7,57,5,,,space,0.984186887741,,,006,jal,59.9559725772,prodShadow,2015_Aug_09_1325,midd,
target,deke,stim/deke.wav,1,8,58,13,,,space,0.850883960724,,,006,jal,59.9559725772,prodShadow,2015_Aug_09_1325,midd,
target,kaka,stim/kaka.wav,1,9,59,28,,,space,0.784535884857,,,006,jal,59.9559725772,prodShadow,2015_Aug_09_1325,midd,
target,giki,stim/giki.wav,1,10,60,23,,,space,0.567573070526,,,006,jal,59.9559725772,prodShadow,2015_Aug_09_1325,midd,
pname,topo,stim/topo.wav,1,11,61,46,,,space,0.533458948135,,,006,jal,59.9559725772,prodShadow,2015_Aug_09_1325,midd,
pname,polo,stim/polo.wav,1,12,62,40,,,space,0.667398929596,,,006,jal,59.9559725772,prodShadow,2015_Aug_09_1325,midd,
distractor,epa,stim/epa.wav,1,13,63,19,,,space,0.566910982132,,,006,jal,59.9559725772,prodShadow,2015_Aug_09_1325,midd,
distractor,eda,stim/eda.wav,1,14,64,18,,,space,0.700556993484,,,006,jal,59.9559725772,prodShadow,2015_Aug_09_1325,midd,
pname,dado,stim/dado.wav,1,15,65,11,,,space,0.884644985199,,,006,jal,59.9559725772,prodShadow,2015_Aug_09_1325,midd,
distractor,uta,stim/uta.wav,1,16,66,49,,,space,0.817083120346,,,006,jal,59.9559725772,prodShadow,2015_Aug_09_1325,midd,
target,teke,stim/teke.wav,1,17,67,44,,,space,0.750866174698,,,006,jal,59.9559725772,prodShadow,2015_Aug_09_1325,midd,
target,keke,stim/keke.wav,1,18,68,29,,,space,0.684432983398,,,006,jal,59.9559725772,prodShadow,2015_Aug_09_1325,midd,
pname,taco,stim/taco.wav,1,19,69,42,,,space,0.751447200775,,,006,jal,59.9559725772,prodShadow,2015_Aug_09_1325,midd,
target,tuku,stim/tuku.wav,1,20,70,48,,,space,0.767807006836,,,006,jal,59.9559725772,prodShadow,2015_Aug_09_1325,midd,
target,kuku,stim/kuku.wav,1,21,71,32,,,space,0.717344999313,,,006,jal,59.9559725772,prodShadow,2015_Aug_09_1325,midd,
target,gaka,stim/gaka.wav,1,22,72,20,,,space,0.90038394928,,,006,jal,59.9559725772,prodShadow,2015_Aug_09_1325,midd,
target,diki,stim/diki.wav,1,23,73,14,,,space,0.616604089737,,,006,jal,59.9559725772,prodShadow,2015_Aug_09_1325,midd,
target,piki,stim/piki.wav,1,24,74,38,,,space,0.567838191986,,,006,jal,59.9559725772,prodShadow,2015_Aug_09_1325,midd,
distractor,ita,stim/ita.wav,1,25,75,27,,,space,0.616986989975,,,006,jal,59.9559725772,prodShadow,2015_Aug_09_1325,midd,
pname,gota,stim/gota.wav,1,26,76,25,,,space,0.450510025024,,,006,jal,59.9559725772,prodShadow,2015_Aug_09_1325,midd,
target,goko,stim/goko.wav,1,27,77,24,,,space,0.766077041626,,,006,jal,59.9559725772,prodShadow,2015_Aug_09_1325,midd,
pname,bala,stim/bala.wav,1,28,78,3,,,space,0.633222103119,,,006,jal,59.9559725772,prodShadow,2015_Aug_09_1325,midd,
pname,bola,stim/bola.wav,1,29,79,7,,,space,0.550237178802,,,006,jal,59.9559725772,prodShadow,2015_Aug_09_1325,midd,
target,doko,stim/doko.wav,1,30,80,16,,,space,0.650359153748,,,006,jal,59.9559725772,prodShadow,2015_Aug_09_1325,midd,
distractor,ada,stim/ada.wav,1,31,81,0,,,space,0.550956964493,,,006,jal,59.9559725772,prodShadow,2015_Aug_09_1325,midd,
target,geke,stim/geke.wav,1,32,82,22,,,space,0.684000968933,,,006,jal,59.9559725772,prodShadow,2015_Aug_09_1325,midd,
target,toko,stim/toko.wav,1,33,83,47,,,space,0.517421960831,,,006,jal,59.9559725772,prodShadow,2015_Aug_09_1325,midd,
target,paka,stim/paka.wav,1,34,84,35,,,space,0.533696174622,,,006,jal,59.9559725772,prodShadow,2015_Aug_09_1325,midd,
pname,dodo,stim/dodo.wav,1,35,85,15,,,space,0.600518941879,,,006,jal,59.9559725772,prodShadow,2015_Aug_09_1325,midd,
target,kiki,stim/kiki.wav,1,36,86,30,,,space,0.566926956177,,,006,jal,59.9559725772,prodShadow,2015_Aug_09_1325,midd,
target,poko,stim/poko.wav,1,37,87,39,,,space,0.467562913895,,,006,jal,59.9559725772,prodShadow,2015_Aug_09_1325,midd,
target,daka,stim/daka.wav,1,38,88,12,,,space,0.667596817017,,,006,jal,59.9559725772,prodShadow,2015_Aug_09_1325,midd,
target,guku,stim/guku.wav,1,39,89,26,,,space,0.665969133377,,,006,jal,59.9559725772,prodShadow,2015_Aug_09_1325,midd,
target,peke,stim/peke.wav,1,40,90,37,,,space,0.667225122452,,,006,jal,59.9559725772,prodShadow,2015_Aug_09_1325,midd,
target,taka,stim/taka.wav,1,41,91,43,,,space,0.734101057053,,,006,jal,59.9559725772,prodShadow,2015_Aug_09_1325,midd,
pname,gato,stim/gato.wav,1,42,92,21,,,space,1.15082883835,,,006,jal,59.9559725772,prodShadow,2015_Aug_09_1325,midd,
pname,palo,stim/palo.wav,1,43,93,36,,,space,0.700428009033,,,006,jal,59.9559725772,prodShadow,2015_Aug_09_1325,midd,
distractor,oka,stim/oka.wav,1,44,94,34,,,space,0.900356054306,,,006,jal,59.9559725772,prodShadow,2015_Aug_09_1325,midd,
target,baka,stim/baka.wav,1,45,95,2,,,space,0.917592048645,,,006,jal,59.9559725772,prodShadow,2015_Aug_09_1325,midd,
target,buku,stim/buku.wav,1,46,96,8,,,space,0.750363111496,,,006,jal,59.9559725772,prodShadow,2015_Aug_09_1325,midd,
target,beke,stim/beke.wav,1,47,97,4,,,space,0.984689950943,,,006,jal,59.9559725772,prodShadow,2015_Aug_09_1325,midd,
distractor,oba,stim/oba.wav,1,48,98,33,,,space,0.88391494751,,,006,jal,59.9559725772,prodShadow,2015_Aug_09_1325,midd,
target,duku,stim/duku.wav,1,49,99,17,,,space,0.83312702179,,,006,jal,59.9559725772,prodShadow,2015_Aug_09_1325,midd,
target,paka,stim/paka.wav,2,0,100,35,,,space,0.483402013779,,,006,jal,59.9559725772,prodShadow,2015_Aug_09_1325,midd,
pname,palo,stim/palo.wav,2,1,101,36,,,space,0.884092092514,,,006,jal,59.9559725772,prodShadow,2015_Aug_09_1325,midd,
distractor,oba,stim/oba.wav,2,2,102,33,,,space,0.73296880722,,,006,jal,59.9559725772,prodShadow,2015_Aug_09_1325,midd,
target,daka,stim/daka.wav,2,3,103,12,,,space,0.800343990326,,,006,jal,59.9559725772,prodShadow,2015_Aug_09_1325,midd,
target,geke,stim/geke.wav,2,4,104,22,,,space,0.800370931625,,,006,jal,59.9559725772,prodShadow,2015_Aug_09_1325,midd,
pname,coco,stim/coco.wav,2,5,105,10,,,space,0.700775146484,,,006,jal,59.9559725772,prodShadow,2015_Aug_09_1325,midd,
pname,taco,stim/taco.wav,2,6,106,42,,,space,0.549993038177,,,006,jal,59.9559725772,prodShadow,2015_Aug_09_1325,midd,
target,duku,stim/duku.wav,2,7,107,17,,,space,0.750828027725,,,006,jal,59.9559725772,prodShadow,2015_Aug_09_1325,midd,
pname,gota,stim/gota.wav,2,8,108,25,,,space,0.783271074295,,,006,jal,59.9559725772,prodShadow,2015_Aug_09_1325,midd,
target,deke,stim/deke.wav,2,9,109,13,,,space,0.650202989578,,,006,jal,59.9559725772,prodShadow,2015_Aug_09_1325,midd,
target,buku,stim/buku.wav,2,10,110,8,,,space,0.617016077042,,,006,jal,59.9559725772,prodShadow,2015_Aug_09_1325,midd,
distractor,uta,stim/uta.wav,2,11,111,49,,,space,0.833764076233,,,006,jal,59.9559725772,prodShadow,2015_Aug_09_1325,midd,
target,boko,stim/boko.wav,2,12,112,6,,,space,0.950530052185,,,006,jal,59.9559725772,prodShadow,2015_Aug_09_1325,midd,
distractor,apa,stim/apa.wav,2,13,113,1,,,space,0.666643857956,,,006,jal,59.9559725772,prodShadow,2015_Aug_09_1325,midd,
target,biki,stim/biki.wav,2,14,114,5,,,space,0.967453956604,,,006,jal,59.9559725772,prodShadow,2015_Aug_09_1325,midd,
distractor,eda,stim/eda.wav,2,15,115,18,,,space,0.650853872299,,,006,jal,59.9559725772,prodShadow,2015_Aug_09_1325,midd,
pname,gato,stim/gato.wav,2,16,116,21,,,space,1.85033106804,,,006,jal,59.9559725772,prodShadow,2015_Aug_09_1325,midd,
target,toko,stim/toko.wav,2,17,117,47,,,space,1.1177649498,,,006,jal,59.9559725772,prodShadow,2015_Aug_09_1325,midd,
target,baka,stim/baka.wav,2,18,118,2,,,space,1.05056905746,,,006,jal,59.9559725772,prodShadow,2015_Aug_09_1325,midd,
target,taka,stim/taka.wav,2,19,119,43,,,space,1.26747012138,,,006,jal,59.9559725772,prodShadow,2015_Aug_09_1325,midd,
target,poko,stim/poko.wav,2,20,120,39,,,space,0.717773914337,,,006,jal,59.9559725772,prodShadow,2015_Aug_09_1325,midd,
pname,dado,stim/dado.wav,2,21,121,11,,,space,0.750762939453,,,006,jal,59.9559725772,prodShadow,2015_Aug_09_1325,midd,
pname,bala,stim/bala.wav,2,22,122,3,,,space,0.733620166779,,,006,jal,59.9559725772,prodShadow,2015_Aug_09_1325,midd,
target,giki,stim/giki.wav,2,23,123,23,,,space,0.651543855667,,,006,jal,59.9559725772,prodShadow,2015_Aug_09_1325,midd,
distractor,ita,stim/ita.wav,2,24,124,27,,,space,0.650449991226,,,006,jal,59.9559725772,prodShadow,2015_Aug_09_1325,midd,
pname,bola,stim/bola.wav,2,25,125,7,,,space,0.967573881149,,,006,jal,59.9559725772,prodShadow,2015_Aug_09_1325,midd,
target,puku,stim/puku.wav,2,26,126,41,,,space,0.733665943146,,,006,jal,59.9559725772,prodShadow,2015_Aug_09_1325,midd,
target,koko,stim/koko.wav,2,27,127,31,,,space,0.70125079155,,,006,jal,59.9559725772,prodShadow,2015_Aug_09_1325,midd,
distractor,epa,stim/epa.wav,2,28,128,19,,,space,1.25042700768,,,006,jal,59.9559725772,prodShadow,2015_Aug_09_1325,midd,
distractor,oka,stim/oka.wav,2,29,129,34,,,space,0.884081125259,,,006,jal,59.9559725772,prodShadow,2015_Aug_09_1325,midd,
target,peke,stim/peke.wav,2,30,130,37,,,space,0.784394025803,,,006,jal,59.9559725772,prodShadow,2015_Aug_09_1325,midd,
target,kaka,stim/kaka.wav,2,31,131,28,,,space,1.00080609322,,,006,jal,59.9559725772,prodShadow,2015_Aug_09_1325,midd,
target,guku,stim/guku.wav,2,32,132,26,,,space,0.932843208313,,,006,jal,59.9559725772,prodShadow,2015_Aug_09_1325,midd,
pname,topo,stim/topo.wav,2,33,133,46,,,space,0.81739616394,,,006,jal,59.9559725772,prodShadow,2015_Aug_09_1325,midd,
target,gaka,stim/gaka.wav,2,34,134,20,,,space,0.966850042343,,,006,jal,59.9559725772,prodShadow,2015_Aug_09_1325,midd,
target,doko,stim/doko.wav,2,35,135,16,,,space,1.08494901657,,,006,jal,59.9559725772,prodShadow,2015_Aug_09_1325,midd,
target,beke,stim/beke.wav,2,36,136,4,,,space,1.00034809113,,,006,jal,59.9559725772,prodShadow,2015_Aug_09_1325,midd,
target,goko,stim/goko.wav,2,37,137,24,,,space,1.73354196548,,,006,jal,59.9559725772,prodShadow,2015_Aug_09_1325,midd,
target,diki,stim/diki.wav,2,38,138,14,,,space,1.25108790398,,,006,jal,59.9559725772,prodShadow,2015_Aug_09_1325,midd,
pname,caca,stim/caca.wav,2,39,139,9,,,space,0.600702047348,,,006,jal,59.9559725772,prodShadow,2015_Aug_09_1325,midd,
target,kiki,stim/kiki.wav,2,40,140,30,,,space,2.18343400955,,,006,jal,59.9559725772,prodShadow,2015_Aug_09_1325,midd,
target,tiki,stim/tiki.wav,2,41,141,45,,,space,0.884469985962,,,006,jal,59.9559725772,prodShadow,2015_Aug_09_1325,midd,
pname,polo,stim/polo.wav,2,42,142,40,,,space,0.833607912064,,,006,jal,59.9559725772,prodShadow,2015_Aug_09_1325,midd,
distractor,ada,stim/ada.wav,2,43,143,0,,,space,0.867415904999,,,006,jal,59.9559725772,prodShadow,2015_Aug_09_1325,midd,
target,kuku,stim/kuku.wav,2,44,144,32,,,space,0.967099905014,,,006,jal,59.9559725772,prodShadow,2015_Aug_09_1325,midd,
target,tuku,stim/tuku.wav,2,45,145,48,,,space,0.86675786972,,,006,jal,59.9559725772,prodShadow,2015_Aug_09_1325,midd,
target,teke,stim/teke.wav,2,46,146,44,,,space,0.884407997131,,,006,jal,59.9559725772,prodShadow,2015_Aug_09_1325,midd,
pname,dodo,stim/dodo.wav,2,47,147,15,,,space,0.899745941162,,,006,jal,59.9559725772,prodShadow,2015_Aug_09_1325,midd,
target,piki,stim/piki.wav,2,48,148,38,,,space,0.617640018463,,,006,jal,59.9559725772,prodShadow,2015_Aug_09_1325,midd,
target,keke,stim/keke.wav,2,49,149,29,,,space,0.800689935684,,,006,jal,59.9559725772,prodShadow,2015_Aug_09_1325,midd,
,,,,,,,,,,,space,7.48360204697,006,jal,59.9559725772,prodShadow,2015_Aug_09_1325,midd,
