status,text,stim,trials.thisRepN,trials.thisTrialN,trials.thisN,trials.thisIndex,key_resp_3.keys,key_resp_3.rt,key_resp_2.keys,key_resp_2.rt,key_resp_4.keys,key_resp_4.rt,session,participant,frameRate,expName,date,condition,
,,,,,,,space,0.200813055038,,,,,006,ems,59.7660543726,prodShadow,2015_Aug_09_1527,midd,
target,daka,stim/daka.wav,0,0,0,12,,,space,6.25099682808,,,006,ems,59.7660543726,prodShadow,2015_Aug_09_1527,midd,
pname,bala,stim/bala.wav,0,1,1,3,,,space,2.41675209999,,,006,ems,59.7660543726,prodShadow,2015_Aug_09_1527,midd,
pname,taco,stim/taco.wav,0,2,2,42,,,space,1.6162481308,,,006,ems,59.7660543726,prodShadow,2015_Aug_09_1527,midd,
pname,palo,stim/palo.wav,0,3,3,36,,,space,1.21621084213,,,006,ems,59.7660543726,prodShadow,2015_Aug_09_1527,midd,
target,baka,stim/baka.wav,0,4,4,2,,,space,1.38407301903,,,006,ems,59.7660543726,prodShadow,2015_Aug_09_1527,midd,
target,goko,stim/goko.wav,0,5,5,24,,,space,1.43442988396,,,006,ems,59.7660543726,prodShadow,2015_Aug_09_1527,midd,
target,tuku,stim/tuku.wav,0,6,6,48,,,space,1.33322191238,,,006,ems,59.7660543726,prodShadow,2015_Aug_09_1527,midd,
target,tiki,stim/tiki.wav,0,7,7,45,,,space,1.18444991112,,,006,ems,59.7660543726,prodShadow,2015_Aug_09_1527,midd,
target,peke,stim/peke.wav,0,8,8,37,,,space,1.21689891815,,,006,ems,59.7660543726,prodShadow,2015_Aug_09_1527,midd,
pname,caca,stim/caca.wav,0,9,9,9,,,space,1.28368282318,,,006,ems,59.7660543726,prodShadow,2015_Aug_09_1527,midd,
target,duku,stim/duku.wav,0,10,10,17,,,space,1.33408403397,,,006,ems,59.7660543726,prodShadow,2015_Aug_09_1527,midd,
target,biki,stim/biki.wav,0,11,11,5,,,space,1.76811385155,,,006,ems,59.7660543726,prodShadow,2015_Aug_09_1527,midd,
distractor,eda,stim/eda.wav,0,12,12,18,,,space,1.4334590435,,,006,ems,59.7660543726,prodShadow,2015_Aug_09_1527,midd,
target,geke,stim/geke.wav,0,13,13,22,,,space,1.56685495377,,,006,ems,59.7660543726,prodShadow,2015_Aug_09_1527,midd,
distractor,epa,stim/epa.wav,0,14,14,19,,,space,1.50080013275,,,006,ems,59.7660543726,prodShadow,2015_Aug_09_1527,midd,
target,kaka,stim/kaka.wav,0,15,15,28,,,space,1.51712203026,,,006,ems,59.7660543726,prodShadow,2015_Aug_09_1527,midd,
target,taka,stim/taka.wav,0,16,16,43,,,space,1.33294606209,,,006,ems,59.7660543726,prodShadow,2015_Aug_09_1527,midd,
pname,polo,stim/polo.wav,0,17,17,40,,,space,1.66753697395,,,006,ems,59.7660543726,prodShadow,2015_Aug_09_1527,midd,
distractor,uta,stim/uta.wav,0,18,18,49,,,space,1.28415393829,,,006,ems,59.7660543726,prodShadow,2015_Aug_09_1527,midd,
target,kiki,stim/kiki.wav,0,19,19,30,,,space,2.16726207733,,,006,ems,59.7660543726,prodShadow,2015_Aug_09_1527,midd,
target,boko,stim/boko.wav,0,20,20,6,,,space,1.6008439064,,,006,ems,59.7660543726,prodShadow,2015_Aug_09_1527,midd,
pname,topo,stim/topo.wav,0,21,21,46,,,space,1.26754784584,,,006,ems,59.7660543726,prodShadow,2015_Aug_09_1527,midd,
pname,gota,stim/gota.wav,0,22,22,25,,,space,1.50014996529,,,006,ems,59.7660543726,prodShadow,2015_Aug_09_1527,midd,
target,guku,stim/guku.wav,0,23,23,26,,,space,1.58438801765,,,006,ems,59.7660543726,prodShadow,2015_Aug_09_1527,midd,
target,puku,stim/puku.wav,0,24,24,41,,,space,1.36738801003,,,006,ems,59.7660543726,prodShadow,2015_Aug_09_1527,midd,
target,deke,stim/deke.wav,0,25,25,13,,,space,1.38430094719,,,006,ems,59.7660543726,prodShadow,2015_Aug_09_1527,midd,
pname,coco,stim/coco.wav,0,26,26,10,,,space,1.2842130661,,,006,ems,59.7660543726,prodShadow,2015_Aug_09_1527,midd,
pname,bola,stim/bola.wav,0,27,27,7,,,space,1.5173830986,,,006,ems,59.7660543726,prodShadow,2015_Aug_09_1527,midd,
distractor,oba,stim/oba.wav,0,28,28,33,,,space,1.36721396446,,,006,ems,59.7660543726,prodShadow,2015_Aug_09_1527,midd,
distractor,ada,stim/ada.wav,0,29,29,0,,,space,1.45112299919,,,006,ems,59.7660543726,prodShadow,2015_Aug_09_1527,midd,
target,paka,stim/paka.wav,0,30,30,35,,,space,1.40156698227,,,006,ems,59.7660543726,prodShadow,2015_Aug_09_1527,midd,
distractor,ita,stim/ita.wav,0,31,31,27,,,space,1.40123796463,,,006,ems,59.7660543726,prodShadow,2015_Aug_09_1527,midd,
pname,gato,stim/gato.wav,0,32,32,21,,,space,1.68413496017,,,006,ems,59.7660543726,prodShadow,2015_Aug_09_1527,midd,
pname,dado,stim/dado.wav,0,33,33,11,,,space,1.56739497185,,,006,ems,59.7660543726,prodShadow,2015_Aug_09_1527,midd,
target,toko,stim/toko.wav,0,34,34,47,,,space,1.39982295036,,,006,ems,59.7660543726,prodShadow,2015_Aug_09_1527,midd,
target,teke,stim/teke.wav,0,35,35,44,,,space,1.53453683853,,,006,ems,59.7660543726,prodShadow,2015_Aug_09_1527,midd,
target,beke,stim/beke.wav,0,36,36,4,,,space,1.78395009041,,,006,ems,59.7660543726,prodShadow,2015_Aug_09_1527,midd,
target,diki,stim/diki.wav,0,37,37,14,,,space,1.4500849247,,,006,ems,59.7660543726,prodShadow,2015_Aug_09_1527,midd,
distractor,apa,stim/apa.wav,0,38,38,1,,,space,1.48400592804,,,006,ems,59.7660543726,prodShadow,2015_Aug_09_1527,midd,
target,kuku,stim/kuku.wav,0,39,39,32,,,space,1.46694493294,,,006,ems,59.7660543726,prodShadow,2015_Aug_09_1527,midd,
target,gaka,stim/gaka.wav,0,40,40,20,,,space,1.55025291443,,,006,ems,59.7660543726,prodShadow,2015_Aug_09_1527,midd,
target,buku,stim/buku.wav,0,41,41,8,,,space,1.90134596825,,,006,ems,59.7660543726,prodShadow,2015_Aug_09_1527,midd,
target,piki,stim/piki.wav,0,42,42,38,,,space,1.78469800949,,,006,ems,59.7660543726,prodShadow,2015_Aug_09_1527,midd,
target,poko,stim/poko.wav,0,43,43,39,,,space,1.34949302673,,,006,ems,59.7660543726,prodShadow,2015_Aug_09_1527,midd,
target,koko,stim/koko.wav,0,44,44,31,,,space,1.4506020546,,,006,ems,59.7660543726,prodShadow,2015_Aug_09_1527,midd,
target,keke,stim/keke.wav,0,45,45,29,,,space,1.26697516441,,,006,ems,59.7660543726,prodShadow,2015_Aug_09_1527,midd,
target,giki,stim/giki.wav,0,46,46,23,,,space,1.36726212502,,,006,ems,59.7660543726,prodShadow,2015_Aug_09_1527,midd,
pname,dodo,stim/dodo.wav,0,47,47,15,,,space,1.48450803757,,,006,ems,59.7660543726,prodShadow,2015_Aug_09_1527,midd,
target,doko,stim/doko.wav,0,48,48,16,,,space,1.58374595642,,,006,ems,59.7660543726,prodShadow,2015_Aug_09_1527,midd,
distractor,oka,stim/oka.wav,0,49,49,34,,,space,1.51751708984,,,006,ems,59.7660543726,prodShadow,2015_Aug_09_1527,midd,
target,peke,stim/peke.wav,1,0,50,37,,,space,1.53379487991,,,006,ems,59.7660543726,prodShadow,2015_Aug_09_1527,midd,
target,teke,stim/teke.wav,1,1,51,44,,,space,1.33472299576,,,006,ems,59.7660543726,prodShadow,2015_Aug_09_1527,midd,
target,kiki,stim/kiki.wav,1,2,52,30,,,space,1.48399209976,,,006,ems,59.7660543726,prodShadow,2015_Aug_09_1527,midd,
target,guku,stim/guku.wav,1,3,53,26,,,space,1.60006093979,,,006,ems,59.7660543726,prodShadow,2015_Aug_09_1527,midd,
distractor,apa,stim/apa.wav,1,4,54,1,,,space,1.55103802681,,,006,ems,59.7660543726,prodShadow,2015_Aug_09_1527,midd,
pname,taco,stim/taco.wav,1,5,55,42,,,space,1.51804590225,,,006,ems,59.7660543726,prodShadow,2015_Aug_09_1527,midd,
distractor,ada,stim/ada.wav,1,6,56,0,,,space,1.43335199356,,,006,ems,59.7660543726,prodShadow,2015_Aug_09_1527,midd,
distractor,ita,stim/ita.wav,1,7,57,27,,,space,1.46751785278,,,006,ems,59.7660543726,prodShadow,2015_Aug_09_1527,midd,
distractor,oka,stim/oka.wav,1,8,58,34,,,space,1.51712298393,,,006,ems,59.7660543726,prodShadow,2015_Aug_09_1527,midd,
target,tuku,stim/tuku.wav,1,9,59,48,,,space,1.58358001709,,,006,ems,59.7660543726,prodShadow,2015_Aug_09_1527,midd,
target,keke,stim/keke.wav,1,10,60,29,,,space,1.31807613373,,,006,ems,59.7660543726,prodShadow,2015_Aug_09_1527,midd,
target,toko,stim/toko.wav,1,11,61,47,,,space,1.43410491943,,,006,ems,59.7660543726,prodShadow,2015_Aug_09_1527,midd,
target,diki,stim/diki.wav,1,12,62,14,,,space,1.28406906128,,,006,ems,59.7660543726,prodShadow,2015_Aug_09_1527,midd,
target,kuku,stim/kuku.wav,1,13,63,32,,,space,1.3337187767,,,006,ems,59.7660543726,prodShadow,2015_Aug_09_1527,midd,
target,tiki,stim/tiki.wav,1,14,64,45,,,space,1.33339500427,,,006,ems,59.7660543726,prodShadow,2015_Aug_09_1527,midd,
target,deke,stim/deke.wav,1,15,65,13,,,space,1.80050206184,,,006,ems,59.7660543726,prodShadow,2015_Aug_09_1527,midd,
pname,topo,stim/topo.wav,1,16,66,46,,,space,1.31759190559,,,006,ems,59.7660543726,prodShadow,2015_Aug_09_1527,midd,
target,doko,stim/doko.wav,1,17,67,16,,,space,1.51760220528,,,006,ems,59.7660543726,prodShadow,2015_Aug_09_1527,midd,
distractor,oba,stim/oba.wav,1,18,68,33,,,space,1.45064282417,,,006,ems,59.7660543726,prodShadow,2015_Aug_09_1527,midd,
pname,palo,stim/palo.wav,1,19,69,36,,,space,1.50123691559,,,006,ems,59.7660543726,prodShadow,2015_Aug_09_1527,midd,
target,goko,stim/goko.wav,1,20,70,24,,,space,1.7175450325,,,006,ems,59.7660543726,prodShadow,2015_Aug_09_1527,midd,
target,biki,stim/biki.wav,1,21,71,5,,,space,1.8333439827,,,006,ems,59.7660543726,prodShadow,2015_Aug_09_1527,midd,
pname,dado,stim/dado.wav,1,22,72,11,,,space,1.71754479408,,,006,ems,59.7660543726,prodShadow,2015_Aug_09_1527,midd,
distractor,uta,stim/uta.wav,1,23,73,49,,,space,1.51732707024,,,006,ems,59.7660543726,prodShadow,2015_Aug_09_1527,midd,
target,duku,stim/duku.wav,1,24,74,17,,,space,1.76757693291,,,006,ems,59.7660543726,prodShadow,2015_Aug_09_1527,midd,
pname,dodo,stim/dodo.wav,1,25,75,15,,,space,1.56669592857,,,006,ems,59.7660543726,prodShadow,2015_Aug_09_1527,midd,
pname,bala,stim/bala.wav,1,26,76,3,,,space,1.55142688751,,,006,ems,59.7660543726,prodShadow,2015_Aug_09_1527,midd,
target,buku,stim/buku.wav,1,27,77,8,,,space,1.58454918861,,,006,ems,59.7660543726,prodShadow,2015_Aug_09_1527,midd,
target,taka,stim/taka.wav,1,28,78,43,,,space,1.38332509995,,,006,ems,59.7660543726,prodShadow,2015_Aug_09_1527,midd,
target,gaka,stim/gaka.wav,1,29,79,20,,,space,1.46646380424,,,006,ems,59.7660543726,prodShadow,2015_Aug_09_1527,midd,
target,koko,stim/koko.wav,1,30,80,31,,,space,1.53377509117,,,006,ems,59.7660543726,prodShadow,2015_Aug_09_1527,midd,
target,poko,stim/poko.wav,1,31,81,39,,,space,1.28459906578,,,006,ems,59.7660543726,prodShadow,2015_Aug_09_1527,midd,
target,baka,stim/baka.wav,1,32,82,2,,,space,1.50047588348,,,006,ems,59.7660543726,prodShadow,2015_Aug_09_1527,midd,
pname,bola,stim/bola.wav,1,33,83,7,,,space,1.68341016769,,,006,ems,59.7660543726,prodShadow,2015_Aug_09_1527,midd,
target,paka,stim/paka.wav,1,34,84,35,,,space,1.56733107567,,,006,ems,59.7660543726,prodShadow,2015_Aug_09_1527,midd,
distractor,eda,stim/eda.wav,1,35,85,18,,,space,1.46680092812,,,006,ems,59.7660543726,prodShadow,2015_Aug_09_1527,midd,
pname,gato,stim/gato.wav,1,36,86,21,,,space,1.81741309166,,,006,ems,59.7660543726,prodShadow,2015_Aug_09_1527,midd,
pname,caca,stim/caca.wav,1,37,87,9,,,space,1.46706819534,,,006,ems,59.7660543726,prodShadow,2015_Aug_09_1527,midd,
target,giki,stim/giki.wav,1,38,88,23,,,space,1.55175113678,,,006,ems,59.7660543726,prodShadow,2015_Aug_09_1527,midd,
pname,gota,stim/gota.wav,1,39,89,25,,,space,1.5842628479,,,006,ems,59.7660543726,prodShadow,2015_Aug_09_1527,midd,
target,kaka,stim/kaka.wav,1,40,90,28,,,space,1.45018100739,,,006,ems,59.7660543726,prodShadow,2015_Aug_09_1527,midd,
distractor,epa,stim/epa.wav,1,41,91,19,,,space,1.41708493233,,,006,ems,59.7660543726,prodShadow,2015_Aug_09_1527,midd,
target,piki,stim/piki.wav,1,42,92,38,,,space,1.23338699341,,,006,ems,59.7660543726,prodShadow,2015_Aug_09_1527,midd,
target,geke,stim/geke.wav,1,43,93,22,,,space,1.68395805359,,,006,ems,59.7660543726,prodShadow,2015_Aug_09_1527,midd,
target,beke,stim/beke.wav,1,44,94,4,,,space,1.76817107201,,,006,ems,59.7660543726,prodShadow,2015_Aug_09_1527,midd,
target,daka,stim/daka.wav,1,45,95,12,,,space,1.50039291382,,,006,ems,59.7660543726,prodShadow,2015_Aug_09_1527,midd,
pname,coco,stim/coco.wav,1,46,96,10,,,space,1.58431506157,,,006,ems,59.7660543726,prodShadow,2015_Aug_09_1527,midd,
target,puku,stim/puku.wav,1,47,97,41,,,space,1.43389892578,,,006,ems,59.7660543726,prodShadow,2015_Aug_09_1527,midd,
target,boko,stim/boko.wav,1,48,98,6,,,space,1.56736397743,,,006,ems,59.7660543726,prodShadow,2015_Aug_09_1527,midd,
pname,polo,stim/polo.wav,1,49,99,40,,,space,1.51737380028,,,006,ems,59.7660543726,prodShadow,2015_Aug_09_1527,midd,
distractor,apa,stim/apa.wav,2,0,100,1,,,space,1.40184497833,,,006,ems,59.7660543726,prodShadow,2015_Aug_09_1527,midd,
target,doko,stim/doko.wav,2,1,101,16,,,space,1.55012178421,,,006,ems,59.7660543726,prodShadow,2015_Aug_09_1527,midd,
target,taka,stim/taka.wav,2,2,102,43,,,space,1.51749897003,,,006,ems,59.7660543726,prodShadow,2015_Aug_09_1527,midd,
target,boko,stim/boko.wav,2,3,103,6,,,space,1.61646986008,,,006,ems,59.7660543726,prodShadow,2015_Aug_09_1527,midd,
target,baka,stim/baka.wav,2,4,104,2,,,space,1.6674258709,,,006,ems,59.7660543726,prodShadow,2015_Aug_09_1527,midd,
pname,gota,stim/gota.wav,2,5,105,25,,,space,1.70059514046,,,006,ems,59.7660543726,prodShadow,2015_Aug_09_1527,midd,
target,kuku,stim/kuku.wav,2,6,106,32,,,space,1.45127105713,,,006,ems,59.7660543726,prodShadow,2015_Aug_09_1527,midd,
target,toko,stim/toko.wav,2,7,107,47,,,space,1.33495092392,,,006,ems,59.7660543726,prodShadow,2015_Aug_09_1527,midd,
target,peke,stim/peke.wav,2,8,108,37,,,space,1.28334188461,,,006,ems,59.7660543726,prodShadow,2015_Aug_09_1527,midd,
target,geke,stim/geke.wav,2,9,109,22,,,space,1.50013113022,,,006,ems,59.7660543726,prodShadow,2015_Aug_09_1527,midd,
target,poko,stim/poko.wav,2,10,110,39,,,space,1.41711091995,,,006,ems,59.7660543726,prodShadow,2015_Aug_09_1527,midd,
target,teke,stim/teke.wav,2,11,111,44,,,space,1.70103287697,,,006,ems,59.7660543726,prodShadow,2015_Aug_09_1527,midd,
distractor,epa,stim/epa.wav,2,12,112,19,,,space,1.40021085739,,,006,ems,59.7660543726,prodShadow,2015_Aug_09_1527,midd,
target,tiki,stim/tiki.wav,2,13,113,45,,,space,1.25058698654,,,006,ems,59.7660543726,prodShadow,2015_Aug_09_1527,midd,
target,guku,stim/guku.wav,2,14,114,26,,,space,1.38363909721,,,006,ems,59.7660543726,prodShadow,2015_Aug_09_1527,midd,
pname,topo,stim/topo.wav,2,15,115,46,,,space,1.21628022194,,,006,ems,59.7660543726,prodShadow,2015_Aug_09_1527,midd,
pname,bala,stim/bala.wav,2,16,116,3,,,space,1.33429598808,,,006,ems,59.7660543726,prodShadow,2015_Aug_09_1527,midd,
pname,bola,stim/bola.wav,2,17,117,7,,,space,1.34974193573,,,006,ems,59.7660543726,prodShadow,2015_Aug_09_1527,midd,
target,kaka,stim/kaka.wav,2,18,118,28,,,space,1.31758499146,,,006,ems,59.7660543726,prodShadow,2015_Aug_09_1527,midd,
distractor,ada,stim/ada.wav,2,19,119,0,,,space,1.30082988739,,,006,ems,59.7660543726,prodShadow,2015_Aug_09_1527,midd,
target,buku,stim/buku.wav,2,20,120,8,,,space,1.56746888161,,,006,ems,59.7660543726,prodShadow,2015_Aug_09_1527,midd,
target,gaka,stim/gaka.wav,2,21,121,20,,,space,1.7674510479,,,006,ems,59.7660543726,prodShadow,2015_Aug_09_1527,midd,
distractor,oka,stim/oka.wav,2,22,122,34,,,space,1.53429603577,,,006,ems,59.7660543726,prodShadow,2015_Aug_09_1527,midd,
target,paka,stim/paka.wav,2,23,123,35,,,space,1.28416991234,,,006,ems,59.7660543726,prodShadow,2015_Aug_09_1527,midd,
distractor,ita,stim/ita.wav,2,24,124,27,,,space,1.30052804947,,,006,ems,59.7660543726,prodShadow,2015_Aug_09_1527,midd,
target,keke,stim/keke.wav,2,25,125,29,,,space,1.3335750103,,,006,ems,59.7660543726,prodShadow,2015_Aug_09_1527,midd,
target,tuku,stim/tuku.wav,2,26,126,48,,,space,1.33415102959,,,006,ems,59.7660543726,prodShadow,2015_Aug_09_1527,midd,
pname,palo,stim/palo.wav,2,27,127,36,,,space,1.31760287285,,,006,ems,59.7660543726,prodShadow,2015_Aug_09_1527,midd,
pname,dado,stim/dado.wav,2,28,128,11,,,space,1.43447399139,,,006,ems,59.7660543726,prodShadow,2015_Aug_09_1527,midd,
target,daka,stim/daka.wav,2,29,129,12,,,space,1.20086193085,,,006,ems,59.7660543726,prodShadow,2015_Aug_09_1527,midd,
target,puku,stim/puku.wav,2,30,130,41,,,space,1.31720089912,,,006,ems,59.7660543726,prodShadow,2015_Aug_09_1527,midd,
target,deke,stim/deke.wav,2,31,131,13,,,space,1.50070214272,,,006,ems,59.7660543726,prodShadow,2015_Aug_09_1527,midd,
target,beke,stim/beke.wav,2,32,132,4,,,space,1.4509100914,,,006,ems,59.7660543726,prodShadow,2015_Aug_09_1527,midd,
target,diki,stim/diki.wav,2,33,133,14,,,space,1.217648983,,,006,ems,59.7660543726,prodShadow,2015_Aug_09_1527,midd,
pname,caca,stim/caca.wav,2,34,134,9,,,space,1.4838809967,,,006,ems,59.7660543726,prodShadow,2015_Aug_09_1527,midd,
target,giki,stim/giki.wav,2,35,135,23,,,space,1.23439407349,,,006,ems,59.7660543726,prodShadow,2015_Aug_09_1527,midd,
target,piki,stim/piki.wav,2,36,136,38,,,space,1.50085401535,,,006,ems,59.7660543726,prodShadow,2015_Aug_09_1527,midd,
pname,gato,stim/gato.wav,2,37,137,21,,,space,1.5840511322,,,006,ems,59.7660543726,prodShadow,2015_Aug_09_1527,midd,
pname,polo,stim/polo.wav,2,38,138,40,,,space,1.43415093422,,,006,ems,59.7660543726,prodShadow,2015_Aug_09_1527,midd,
pname,dodo,stim/dodo.wav,2,39,139,15,,,space,1.35072612762,,,006,ems,59.7660543726,prodShadow,2015_Aug_09_1527,midd,
pname,taco,stim/taco.wav,2,40,140,42,,,space,1.31732606888,,,006,ems,59.7660543726,prodShadow,2015_Aug_09_1527,midd,
target,koko,stim/koko.wav,2,41,141,31,,,space,1.30057191849,,,006,ems,59.7660543726,prodShadow,2015_Aug_09_1527,midd,
target,biki,stim/biki.wav,2,42,142,5,,,space,1.55086493492,,,006,ems,59.7660543726,prodShadow,2015_Aug_09_1527,midd,
pname,coco,stim/coco.wav,2,43,143,10,,,space,1.38374686241,,,006,ems,59.7660543726,prodShadow,2015_Aug_09_1527,midd,
distractor,uta,stim/uta.wav,2,44,144,49,,,space,1.25067782402,,,006,ems,59.7660543726,prodShadow,2015_Aug_09_1527,midd,
target,kiki,stim/kiki.wav,2,45,145,30,,,space,1.4336810112,,,006,ems,59.7660543726,prodShadow,2015_Aug_09_1527,midd,
target,goko,stim/goko.wav,2,46,146,24,,,space,1.56714916229,,,006,ems,59.7660543726,prodShadow,2015_Aug_09_1527,midd,
distractor,eda,stim/eda.wav,2,47,147,18,,,space,1.31735801697,,,006,ems,59.7660543726,prodShadow,2015_Aug_09_1527,midd,
target,duku,stim/duku.wav,2,48,148,17,,,space,1.40063905716,,,006,ems,59.7660543726,prodShadow,2015_Aug_09_1527,midd,
distractor,oba,stim/oba.wav,2,49,149,33,,,space,1.53393578529,,,006,ems,59.7660543726,prodShadow,2015_Aug_09_1527,midd,
,,,,,,,,,,,space,9.63359117508,006,ems,59.7660543726,prodShadow,2015_Aug_09_1527,midd,
