status,text,stim,trials.thisRepN,trials.thisTrialN,trials.thisN,trials.thisIndex,key_resp_3.keys,key_resp_3.rt,key_resp_2.keys,key_resp_2.rt,key_resp_4.keys,key_resp_4.rt,session,participant,frameRate,expName,date,condition,
,,,,,,,space,1.25020003319,,,,,002,blr,60.093328462,prodShadow,2015_Jul_12_1505,midd,
distractor,ada,stim/ada.wav,0,0,0,0,,,space,2.03427505493,,,002,blr,60.093328462,prodShadow,2015_Jul_12_1505,midd,
distractor,ita,stim/ita.wav,0,1,1,27,,,space,1.3501560688,,,002,blr,60.093328462,prodShadow,2015_Jul_12_1505,midd,
target,tiki,stim/tiki.wav,0,2,2,45,,,space,1.31733393669,,,002,blr,60.093328462,prodShadow,2015_Jul_12_1505,midd,
target,boko,stim/boko.wav,0,3,3,6,,,space,1.55146098137,,,002,blr,60.093328462,prodShadow,2015_Jul_12_1505,midd,
target,guku,stim/guku.wav,0,4,4,26,,,space,1.55117201805,,,002,blr,60.093328462,prodShadow,2015_Jul_12_1505,midd,
target,teke,stim/teke.wav,0,5,5,44,,,space,1.15076184273,,,002,blr,60.093328462,prodShadow,2015_Jul_12_1505,midd,
pname,dodo,stim/dodo.wav,0,6,6,15,,,space,1.30032896996,,,002,blr,60.093328462,prodShadow,2015_Jul_12_1505,midd,
distractor,eda,stim/eda.wav,0,7,7,18,,,space,1.06715989113,,,002,blr,60.093328462,prodShadow,2015_Jul_12_1505,midd,
target,poko,stim/poko.wav,0,8,8,39,,,space,1.06795883179,,,002,blr,60.093328462,prodShadow,2015_Jul_12_1505,midd,
pname,topo,stim/topo.wav,0,9,9,46,,,space,1.13339209557,,,002,blr,60.093328462,prodShadow,2015_Jul_12_1505,midd,
pname,coco,stim/coco.wav,0,10,10,10,,,space,1.21788406372,,,002,blr,60.093328462,prodShadow,2015_Jul_12_1505,midd,
target,doko,stim/doko.wav,0,11,11,16,,,space,1.50065994263,,,002,blr,60.093328462,prodShadow,2015_Jul_12_1505,midd,
target,geke,stim/geke.wav,0,12,12,22,,,space,1.40044689178,,,002,blr,60.093328462,prodShadow,2015_Jul_12_1505,midd,
target,kiki,stim/kiki.wav,0,13,13,30,,,space,1.1504650116,,,002,blr,60.093328462,prodShadow,2015_Jul_12_1505,midd,
target,goko,stim/goko.wav,0,14,14,24,,,space,1.11653494835,,,002,blr,60.093328462,prodShadow,2015_Jul_12_1505,midd,
target,baka,stim/baka.wav,0,15,15,2,,,space,1.18520212173,,,002,blr,60.093328462,prodShadow,2015_Jul_12_1505,midd,
pname,gota,stim/gota.wav,0,16,16,25,,,space,1.39991903305,,,002,blr,60.093328462,prodShadow,2015_Jul_12_1505,midd,
target,peke,stim/peke.wav,0,17,17,37,,,space,1.26768708229,,,002,blr,60.093328462,prodShadow,2015_Jul_12_1505,midd,
target,giki,stim/giki.wav,0,18,18,23,,,space,1.30060911179,,,002,blr,60.093328462,prodShadow,2015_Jul_12_1505,midd,
target,biki,stim/biki.wav,0,19,19,5,,,space,1.40025377274,,,002,blr,60.093328462,prodShadow,2015_Jul_12_1505,midd,
target,puku,stim/puku.wav,0,20,20,41,,,space,1.38319420815,,,002,blr,60.093328462,prodShadow,2015_Jul_12_1505,midd,
target,taka,stim/taka.wav,0,21,21,43,,,space,1.18444609642,,,002,blr,60.093328462,prodShadow,2015_Jul_12_1505,midd,
distractor,oba,stim/oba.wav,0,22,22,33,,,space,1.35145282745,,,002,blr,60.093328462,prodShadow,2015_Jul_12_1505,midd,
target,kaka,stim/kaka.wav,0,23,23,28,,,space,1.35004806519,,,002,blr,60.093328462,prodShadow,2015_Jul_12_1505,midd,
pname,taco,stim/taco.wav,0,24,24,42,,,space,1.48406505585,,,002,blr,60.093328462,prodShadow,2015_Jul_12_1505,midd,
distractor,apa,stim/apa.wav,0,25,25,1,,,space,1.18439292908,,,002,blr,60.093328462,prodShadow,2015_Jul_12_1505,midd,
target,beke,stim/beke.wav,0,26,26,4,,,space,1.66814088821,,,002,blr,60.093328462,prodShadow,2015_Jul_12_1505,midd,
target,piki,stim/piki.wav,0,27,27,38,,,space,1.23460197449,,,002,blr,60.093328462,prodShadow,2015_Jul_12_1505,midd,
target,tuku,stim/tuku.wav,0,28,28,48,,,space,1.21751904488,,,002,blr,60.093328462,prodShadow,2015_Jul_12_1505,midd,
pname,caca,stim/caca.wav,0,29,29,9,,,space,1.1172888279,,,002,blr,60.093328462,prodShadow,2015_Jul_12_1505,midd,
target,toko,stim/toko.wav,0,30,30,47,,,space,1.05098509789,,,002,blr,60.093328462,prodShadow,2015_Jul_12_1505,midd,
target,paka,stim/paka.wav,0,31,31,35,,,space,1.36778998375,,,002,blr,60.093328462,prodShadow,2015_Jul_12_1505,midd,
target,duku,stim/duku.wav,0,32,32,17,,,space,1.3001999855,,,002,blr,60.093328462,prodShadow,2015_Jul_12_1505,midd,
target,keke,stim/keke.wav,0,33,33,29,,,space,1.40027999878,,,002,blr,60.093328462,prodShadow,2015_Jul_12_1505,midd,
target,koko,stim/koko.wav,0,34,34,31,,,space,1.40058493614,,,002,blr,60.093328462,prodShadow,2015_Jul_12_1505,midd,
target,gaka,stim/gaka.wav,0,35,35,20,,,space,1.66752409935,,,002,blr,60.093328462,prodShadow,2015_Jul_12_1505,midd,
target,buku,stim/buku.wav,0,36,36,8,,,space,1.33507990837,,,002,blr,60.093328462,prodShadow,2015_Jul_12_1505,midd,
distractor,uta,stim/uta.wav,0,37,37,49,,,space,1.21721506119,,,002,blr,60.093328462,prodShadow,2015_Jul_12_1505,midd,
pname,palo,stim/palo.wav,0,38,38,36,,,space,1.18399500847,,,002,blr,60.093328462,prodShadow,2015_Jul_12_1505,midd,
pname,dado,stim/dado.wav,0,39,39,11,,,space,1.26792597771,,,002,blr,60.093328462,prodShadow,2015_Jul_12_1505,midd,
target,kuku,stim/kuku.wav,0,40,40,32,,,space,1.11721801758,,,002,blr,60.093328462,prodShadow,2015_Jul_12_1505,midd,
pname,polo,stim/polo.wav,0,41,41,40,,,space,1.06745219231,,,002,blr,60.093328462,prodShadow,2015_Jul_12_1505,midd,
distractor,epa,stim/epa.wav,0,42,42,19,,,space,1.15089988708,,,002,blr,60.093328462,prodShadow,2015_Jul_12_1505,midd,
pname,bala,stim/bala.wav,0,43,43,3,,,space,1.03372597694,,,002,blr,60.093328462,prodShadow,2015_Jul_12_1505,midd,
distractor,oka,stim/oka.wav,0,44,44,34,,,space,1.20064783096,,,002,blr,60.093328462,prodShadow,2015_Jul_12_1505,midd,
pname,bola,stim/bola.wav,0,45,45,7,,,space,1.28409695625,,,002,blr,60.093328462,prodShadow,2015_Jul_12_1505,midd,
target,deke,stim/deke.wav,0,46,46,13,,,space,1.3678290844,,,002,blr,60.093328462,prodShadow,2015_Jul_12_1505,midd,
target,diki,stim/diki.wav,0,47,47,14,,,space,1.18451809883,,,002,blr,60.093328462,prodShadow,2015_Jul_12_1505,midd,
target,daka,stim/daka.wav,0,48,48,12,,,space,1.0005300045,,,002,blr,60.093328462,prodShadow,2015_Jul_12_1505,midd,
pname,gato,stim/gato.wav,0,49,49,21,,,space,1.55065608025,,,002,blr,60.093328462,prodShadow,2015_Jul_12_1505,midd,
distractor,eda,stim/eda.wav,1,0,50,18,,,space,1.33409690857,,,002,blr,60.093328462,prodShadow,2015_Jul_12_1505,midd,
distractor,ita,stim/ita.wav,1,1,51,27,,,space,1.55092215538,,,002,blr,60.093328462,prodShadow,2015_Jul_12_1505,midd,
pname,gota,stim/gota.wav,1,2,52,25,,,space,1.90057897568,,,002,blr,60.093328462,prodShadow,2015_Jul_12_1505,midd,
target,giki,stim/giki.wav,1,3,53,23,,,space,1.46741986275,,,002,blr,60.093328462,prodShadow,2015_Jul_12_1505,midd,
target,boko,stim/boko.wav,1,4,54,6,,,space,1.35100698471,,,002,blr,60.093328462,prodShadow,2015_Jul_12_1505,midd,
target,puku,stim/puku.wav,1,5,55,41,,,space,1.08433794975,,,002,blr,60.093328462,prodShadow,2015_Jul_12_1505,midd,
target,goko,stim/goko.wav,1,6,56,24,,,space,1.08381009102,,,002,blr,60.093328462,prodShadow,2015_Jul_12_1505,midd,
target,kaka,stim/kaka.wav,1,7,57,28,,,space,1.0342900753,,,002,blr,60.093328462,prodShadow,2015_Jul_12_1505,midd,
target,gaka,stim/gaka.wav,1,8,58,20,,,space,1.08417105675,,,002,blr,60.093328462,prodShadow,2015_Jul_12_1505,midd,
pname,coco,stim/coco.wav,1,9,59,10,,,space,1.03409099579,,,002,blr,60.093328462,prodShadow,2015_Jul_12_1505,midd,
target,taka,stim/taka.wav,1,10,60,43,,,space,1.20068597794,,,002,blr,60.093328462,prodShadow,2015_Jul_12_1505,midd,
target,toko,stim/toko.wav,1,11,61,47,,,space,1.28413009644,,,002,blr,60.093328462,prodShadow,2015_Jul_12_1505,midd,
target,paka,stim/paka.wav,1,12,62,35,,,space,1.7841360569,,,002,blr,60.093328462,prodShadow,2015_Jul_12_1505,midd,
target,keke,stim/keke.wav,1,13,63,29,,,space,1.03410887718,,,002,blr,60.093328462,prodShadow,2015_Jul_12_1505,midd,
distractor,uta,stim/uta.wav,1,14,64,49,,,space,1.11731004715,,,002,blr,60.093328462,prodShadow,2015_Jul_12_1505,midd,
pname,gato,stim/gato.wav,1,15,65,21,,,space,1.33419013023,,,002,blr,60.093328462,prodShadow,2015_Jul_12_1505,midd,
target,duku,stim/duku.wav,1,16,66,17,,,space,1.25074481964,,,002,blr,60.093328462,prodShadow,2015_Jul_12_1505,midd,
pname,dodo,stim/dodo.wav,1,17,67,15,,,space,1.25057911873,,,002,blr,60.093328462,prodShadow,2015_Jul_12_1505,midd,
target,tuku,stim/tuku.wav,1,18,68,48,,,space,1.35095787048,,,002,blr,60.093328462,prodShadow,2015_Jul_12_1505,midd,
target,deke,stim/deke.wav,1,19,69,13,,,space,1.23437285423,,,002,blr,60.093328462,prodShadow,2015_Jul_12_1505,midd,
target,teke,stim/teke.wav,1,20,70,44,,,space,1.31716680527,,,002,blr,60.093328462,prodShadow,2015_Jul_12_1505,midd,
distractor,epa,stim/epa.wav,1,21,71,19,,,space,1.36752605438,,,002,blr,60.093328462,prodShadow,2015_Jul_12_1505,midd,
target,tiki,stim/tiki.wav,1,22,72,45,,,space,0.983785152435,,,002,blr,60.093328462,prodShadow,2015_Jul_12_1505,midd,
pname,caca,stim/caca.wav,1,23,73,9,,,space,1.05067586899,,,002,blr,60.093328462,prodShadow,2015_Jul_12_1505,midd,
target,buku,stim/buku.wav,1,24,74,8,,,space,1.56761002541,,,002,blr,60.093328462,prodShadow,2015_Jul_12_1505,midd,
pname,bala,stim/bala.wav,1,25,75,3,,,space,1.16763710976,,,002,blr,60.093328462,prodShadow,2015_Jul_12_1505,midd,
pname,topo,stim/topo.wav,1,26,76,46,,,space,1.0005030632,,,002,blr,60.093328462,prodShadow,2015_Jul_12_1505,midd,
pname,palo,stim/palo.wav,1,27,77,36,,,space,0.967585086823,,,002,blr,60.093328462,prodShadow,2015_Jul_12_1505,midd,
target,koko,stim/koko.wav,1,28,78,31,,,space,1.23407101631,,,002,blr,60.093328462,prodShadow,2015_Jul_12_1505,midd,
target,diki,stim/diki.wav,1,29,79,14,,,space,1.30078291893,,,002,blr,60.093328462,prodShadow,2015_Jul_12_1505,midd,
target,beke,stim/beke.wav,1,30,80,4,,,space,1.41755318642,,,002,blr,60.093328462,prodShadow,2015_Jul_12_1505,midd,
pname,taco,stim/taco.wav,1,31,81,42,,,space,1.28377819061,,,002,blr,60.093328462,prodShadow,2015_Jul_12_1505,midd,
target,geke,stim/geke.wav,1,32,82,22,,,space,1.20077800751,,,002,blr,60.093328462,prodShadow,2015_Jul_12_1505,midd,
target,baka,stim/baka.wav,1,33,83,2,,,space,1.71732807159,,,002,blr,60.093328462,prodShadow,2015_Jul_12_1505,midd,
pname,polo,stim/polo.wav,1,34,84,40,,,space,1.30080413818,,,002,blr,60.093328462,prodShadow,2015_Jul_12_1505,midd,
target,daka,stim/daka.wav,1,35,85,12,,,space,1.08384394646,,,002,blr,60.093328462,prodShadow,2015_Jul_12_1505,midd,
distractor,ada,stim/ada.wav,1,36,86,0,,,space,1.61771893501,,,002,blr,60.093328462,prodShadow,2015_Jul_12_1505,midd,
target,kuku,stim/kuku.wav,1,37,87,32,,,space,1.20117211342,,,002,blr,60.093328462,prodShadow,2015_Jul_12_1505,midd,
pname,dado,stim/dado.wav,1,38,88,11,,,space,1.3672349453,,,002,blr,60.093328462,prodShadow,2015_Jul_12_1505,midd,
pname,bola,stim/bola.wav,1,39,89,7,,,space,1.28383493423,,,002,blr,60.093328462,prodShadow,2015_Jul_12_1505,midd,
target,piki,stim/piki.wav,1,40,90,38,,,space,1.15093493462,,,002,blr,60.093328462,prodShadow,2015_Jul_12_1505,midd,
target,doko,stim/doko.wav,1,41,91,16,,,space,1.50097584724,,,002,blr,60.093328462,prodShadow,2015_Jul_12_1505,midd,
target,kiki,stim/kiki.wav,1,42,92,30,,,space,1.28420782089,,,002,blr,60.093328462,prodShadow,2015_Jul_12_1505,midd,
distractor,oba,stim/oba.wav,1,43,93,33,,,space,1.08384799957,,,002,blr,60.093328462,prodShadow,2015_Jul_12_1505,midd,
target,biki,stim/biki.wav,1,44,94,5,,,space,1.18436789513,,,002,blr,60.093328462,prodShadow,2015_Jul_12_1505,midd,
target,poko,stim/poko.wav,1,45,95,39,,,space,1.01762199402,,,002,blr,60.093328462,prodShadow,2015_Jul_12_1505,midd,
distractor,oka,stim/oka.wav,1,46,96,34,,,space,1.15087795258,,,002,blr,60.093328462,prodShadow,2015_Jul_12_1505,midd,
target,guku,stim/guku.wav,1,47,97,26,,,space,1.15073108673,,,002,blr,60.093328462,prodShadow,2015_Jul_12_1505,midd,
distractor,apa,stim/apa.wav,1,48,98,1,,,space,1.23411512375,,,002,blr,60.093328462,prodShadow,2015_Jul_12_1505,midd,
target,peke,stim/peke.wav,1,49,99,37,,,space,1.0007121563,,,002,blr,60.093328462,prodShadow,2015_Jul_12_1505,midd,
target,deke,stim/deke.wav,2,0,100,13,,,space,1.40103006363,,,002,blr,60.093328462,prodShadow,2015_Jul_12_1505,midd,
pname,taco,stim/taco.wav,2,1,101,42,,,space,1.13408684731,,,002,blr,60.093328462,prodShadow,2015_Jul_12_1505,midd,
distractor,apa,stim/apa.wav,2,2,102,1,,,space,1.01759314537,,,002,blr,60.093328462,prodShadow,2015_Jul_12_1505,midd,
target,buku,stim/buku.wav,2,3,103,8,,,space,1.30127310753,,,002,blr,60.093328462,prodShadow,2015_Jul_12_1505,midd,
distractor,eda,stim/eda.wav,2,4,104,18,,,space,1.0677011013,,,002,blr,60.093328462,prodShadow,2015_Jul_12_1505,midd,
pname,dodo,stim/dodo.wav,2,5,105,15,,,space,1.08415603638,,,002,blr,60.093328462,prodShadow,2015_Jul_12_1505,midd,
pname,gato,stim/gato.wav,2,6,106,21,,,space,1.46763586998,,,002,blr,60.093328462,prodShadow,2015_Jul_12_1505,midd,
target,piki,stim/piki.wav,2,7,107,38,,,space,1.06719279289,,,002,blr,60.093328462,prodShadow,2015_Jul_12_1505,midd,
distractor,oka,stim/oka.wav,2,8,108,34,,,space,1.20058202744,,,002,blr,60.093328462,prodShadow,2015_Jul_12_1505,midd,
target,beke,stim/beke.wav,2,9,109,4,,,space,1.43405103683,,,002,blr,60.093328462,prodShadow,2015_Jul_12_1505,midd,
target,keke,stim/keke.wav,2,10,110,29,,,space,0.884187936783,,,002,blr,60.093328462,prodShadow,2015_Jul_12_1505,midd,
target,biki,stim/biki.wav,2,11,111,5,,,space,1.1339468956,,,002,blr,60.093328462,prodShadow,2015_Jul_12_1505,midd,
target,tiki,stim/tiki.wav,2,12,112,45,,,space,1.0341629982,,,002,blr,60.093328462,prodShadow,2015_Jul_12_1505,midd,
pname,dado,stim/dado.wav,2,13,113,11,,,space,1.45106005669,,,002,blr,60.093328462,prodShadow,2015_Jul_12_1505,midd,
target,tuku,stim/tuku.wav,2,14,114,48,,,space,1.2178208828,,,002,blr,60.093328462,prodShadow,2015_Jul_12_1505,midd,
pname,gota,stim/gota.wav,2,15,115,25,,,space,1.28439807892,,,002,blr,60.093328462,prodShadow,2015_Jul_12_1505,midd,
distractor,oba,stim/oba.wav,2,16,116,33,,,space,1.10122108459,,,002,blr,60.093328462,prodShadow,2015_Jul_12_1505,midd,
target,kaka,stim/kaka.wav,2,17,117,28,,,space,1.10076713562,,,002,blr,60.093328462,prodShadow,2015_Jul_12_1505,midd,
target,koko,stim/koko.wav,2,18,118,31,,,space,1.2010550499,,,002,blr,60.093328462,prodShadow,2015_Jul_12_1505,midd,
pname,bala,stim/bala.wav,2,19,119,3,,,space,1.16786694527,,,002,blr,60.093328462,prodShadow,2015_Jul_12_1505,midd,
pname,topo,stim/topo.wav,2,20,120,46,,,space,0.867659091949,,,002,blr,60.093328462,prodShadow,2015_Jul_12_1505,midd,
target,giki,stim/giki.wav,2,21,121,23,,,space,1.10074210167,,,002,blr,60.093328462,prodShadow,2015_Jul_12_1505,midd,
pname,palo,stim/palo.wav,2,22,122,36,,,space,0.983572006226,,,002,blr,60.093328462,prodShadow,2015_Jul_12_1505,midd,
target,boko,stim/boko.wav,2,23,123,6,,,space,1.11647295952,,,002,blr,60.093328462,prodShadow,2015_Jul_12_1505,midd,
target,taka,stim/taka.wav,2,24,124,43,,,space,1.45097994804,,,002,blr,60.093328462,prodShadow,2015_Jul_12_1505,midd,
distractor,ada,stim/ada.wav,2,25,125,0,,,space,1.3007478714,,,002,blr,60.093328462,prodShadow,2015_Jul_12_1505,midd,
target,puku,stim/puku.wav,2,26,126,41,,,space,0.950926065445,,,002,blr,60.093328462,prodShadow,2015_Jul_12_1505,midd,
target,gaka,stim/gaka.wav,2,27,127,20,,,space,1.06709480286,,,002,blr,60.093328462,prodShadow,2015_Jul_12_1505,midd,
target,peke,stim/peke.wav,2,28,128,37,,,space,1.06733202934,,,002,blr,60.093328462,prodShadow,2015_Jul_12_1505,midd,
distractor,uta,stim/uta.wav,2,29,129,49,,,space,1.1172478199,,,002,blr,60.093328462,prodShadow,2015_Jul_12_1505,midd,
distractor,epa,stim/epa.wav,2,30,130,19,,,space,1.36757898331,,,002,blr,60.093328462,prodShadow,2015_Jul_12_1505,midd,
target,kiki,stim/kiki.wav,2,31,131,30,,,space,1.51766300201,,,002,blr,60.093328462,prodShadow,2015_Jul_12_1505,midd,
target,daka,stim/daka.wav,2,32,132,12,,,space,1.26764798164,,,002,blr,60.093328462,prodShadow,2015_Jul_12_1505,midd,
target,kuku,stim/kuku.wav,2,33,133,32,,,space,1.1013109684,,,002,blr,60.093328462,prodShadow,2015_Jul_12_1505,midd,
pname,coco,stim/coco.wav,2,34,134,10,,,space,1.38443613052,,,002,blr,60.093328462,prodShadow,2015_Jul_12_1505,midd,
target,poko,stim/poko.wav,2,35,135,39,,,space,0.900404930115,,,002,blr,60.093328462,prodShadow,2015_Jul_12_1505,midd,
pname,caca,stim/caca.wav,2,36,136,9,,,space,0.984712123871,,,002,blr,60.093328462,prodShadow,2015_Jul_12_1505,midd,
pname,polo,stim/polo.wav,2,37,137,40,,,space,1.10100412369,,,002,blr,60.093328462,prodShadow,2015_Jul_12_1505,midd,
pname,bola,stim/bola.wav,2,38,138,7,,,space,1.05121898651,,,002,blr,60.093328462,prodShadow,2015_Jul_12_1505,midd,
target,diki,stim/diki.wav,2,39,139,14,,,space,1.15114092827,,,002,blr,60.093328462,prodShadow,2015_Jul_12_1505,midd,
target,goko,stim/goko.wav,2,40,140,24,,,space,1.43416881561,,,002,blr,60.093328462,prodShadow,2015_Jul_12_1505,midd,
target,teke,stim/teke.wav,2,41,141,44,,,space,1.43432092667,,,002,blr,60.093328462,prodShadow,2015_Jul_12_1505,midd,
target,toko,stim/toko.wav,2,42,142,47,,,space,0.983289957047,,,002,blr,60.093328462,prodShadow,2015_Jul_12_1505,midd,
target,duku,stim/duku.wav,2,43,143,17,,,space,1.26711893082,,,002,blr,60.093328462,prodShadow,2015_Jul_12_1505,midd,
target,doko,stim/doko.wav,2,44,144,16,,,space,1.28313493729,,,002,blr,60.093328462,prodShadow,2015_Jul_12_1505,midd,
target,paka,stim/paka.wav,2,45,145,35,,,space,1.15056490898,,,002,blr,60.093328462,prodShadow,2015_Jul_12_1505,midd,
distractor,ita,stim/ita.wav,2,46,146,27,,,space,0.951216936111,,,002,blr,60.093328462,prodShadow,2015_Jul_12_1505,midd,
target,baka,stim/baka.wav,2,47,147,2,,,space,1.20026612282,,,002,blr,60.093328462,prodShadow,2015_Jul_12_1505,midd,
target,geke,stim/geke.wav,2,48,148,22,,,space,1.48359012604,,,002,blr,60.093328462,prodShadow,2015_Jul_12_1505,midd,
target,guku,stim/guku.wav,2,49,149,26,,,space,1.39931201935,,,002,blr,60.093328462,prodShadow,2015_Jul_12_1505,midd,
,,,,,,,,,,,space,8.78478097916,002,blr,60.093328462,prodShadow,2015_Jul_12_1505,midd,
