status,stim,trials.thisRepN,trials.thisTrialN,trials.thisN,trials.thisIndex,key_resp_2.keys,key_resp_2.rt,key_resp_4.keys,key_resp_4.rt,session,participant,frameRate,expName,date,condition,
target,stim/bola.png,0,0,0,9,space,2.78481698036,,,001,gabibi,59.971832154,prodShadow,2016_Feb_18_1256,tuc,
distractor,stim/manzana.png,0,1,1,4,space,1.11671590805,,,001,gabibi,59.971832154,prodShadow,2016_Feb_18_1256,tuc,
distractor,stim/libro.png,0,2,2,5,space,1.26420903206,,,001,gabibi,59.971832154,prodShadow,2016_Feb_18_1256,tuc,
target,stim/caca.png,0,3,3,10,space,1.10053801537,,,001,gabibi,59.971832154,prodShadow,2016_Feb_18_1256,tuc,
target,stim/bala.png,0,4,4,8,space,1.13777685165,,,001,gabibi,59.971832154,prodShadow,2016_Feb_18_1256,tuc,
target,stim/dodo.png,0,5,5,13,space,1.06850409508,,,001,gabibi,59.971832154,prodShadow,2016_Feb_18_1256,tuc,
target,stim/gato.png,0,6,6,14,space,0.950453042984,,,001,gabibi,59.971832154,prodShadow,2016_Feb_18_1256,tuc,
distractor,stim/sombrero.png,0,7,7,0,space,1.91786289215,,,001,gabibi,59.971832154,prodShadow,2016_Feb_18_1256,tuc,
target,stim/dado.png,0,8,8,12,space,1.20437002182,,,001,gabibi,59.971832154,prodShadow,2016_Feb_18_1256,tuc,
distractor,stim/mochila.png,0,9,9,7,space,4.2519698143,,,001,gabibi,59.971832154,prodShadow,2016_Feb_18_1256,tuc,
target,stim/taco.png,0,10,10,18,space,1.91802096367,,,001,gabibi,59.971832154,prodShadow,2016_Feb_18_1256,tuc,
distractor,stim/lapiz.png,0,11,11,3,space,1.56783699989,,,001,gabibi,59.971832154,prodShadow,2016_Feb_18_1256,tuc,
target,stim/polo.png,0,12,12,17,space,1.03340315819,,,001,gabibi,59.971832154,prodShadow,2016_Feb_18_1256,tuc,
target,stim/gota.png,0,13,13,15,space,1.00172305107,,,001,gabibi,59.971832154,prodShadow,2016_Feb_18_1256,tuc,
target,stim/palo.png,0,14,14,16,space,1.08417105675,,,001,gabibi,59.971832154,prodShadow,2016_Feb_18_1256,tuc,
distractor,stim/silla.png,0,15,15,6,space,0.984961032867,,,001,gabibi,59.971832154,prodShadow,2016_Feb_18_1256,tuc,
target,stim/coco.png,0,16,16,11,space,0.934914827347,,,001,gabibi,59.971832154,prodShadow,2016_Feb_18_1256,tuc,
target,stim/topo.png,0,17,17,19,space,0.950877904892,,,001,gabibi,59.971832154,prodShadow,2016_Feb_18_1256,tuc,
distractor,stim/sol.png,0,18,18,1,space,0.91791009903,,,001,gabibi,59.971832154,prodShadow,2016_Feb_18_1256,tuc,
distractor,stim/arbol.png,0,19,19,2,space,0.934103012085,,,001,gabibi,59.971832154,prodShadow,2016_Feb_18_1256,tuc,
target,stim/gato.png,1,0,20,14,space,0.981579065323,,,001,gabibi,59.971832154,prodShadow,2016_Feb_18_1256,tuc,
target,stim/dado.png,1,1,21,12,space,1.01398992538,,,001,gabibi,59.971832154,prodShadow,2016_Feb_18_1256,tuc,
distractor,stim/mochila.png,1,2,22,7,space,3.13540196419,,,001,gabibi,59.971832154,prodShadow,2016_Feb_18_1256,tuc,
distractor,stim/arbol.png,1,3,23,2,space,2.16767883301,,,001,gabibi,59.971832154,prodShadow,2016_Feb_18_1256,tuc,
target,stim/dodo.png,1,4,24,13,space,1.067663908,,,001,gabibi,59.971832154,prodShadow,2016_Feb_18_1256,tuc,
target,stim/gota.png,1,5,25,15,space,0.630731105804,,,001,gabibi,59.971832154,prodShadow,2016_Feb_18_1256,tuc,
distractor,stim/manzana.png,1,6,26,4,space,0.830957889557,,,001,gabibi,59.971832154,prodShadow,2016_Feb_18_1256,tuc,
distractor,stim/libro.png,1,7,27,5,space,0.885020017624,,,001,gabibi,59.971832154,prodShadow,2016_Feb_18_1256,tuc,
distractor,stim/sombrero.png,1,8,28,0,space,1.20403194427,,,001,gabibi,59.971832154,prodShadow,2016_Feb_18_1256,tuc,
target,stim/caca.png,1,9,29,10,space,0.917619943619,,,001,gabibi,59.971832154,prodShadow,2016_Feb_18_1256,tuc,
target,stim/polo.png,1,10,30,17,space,1.0352268219,,,001,gabibi,59.971832154,prodShadow,2016_Feb_18_1256,tuc,
target,stim/coco.png,1,11,31,11,space,0.981163978577,,,001,gabibi,59.971832154,prodShadow,2016_Feb_18_1256,tuc,
distractor,stim/lapiz.png,1,12,32,3,space,0.967813014984,,,001,gabibi,59.971832154,prodShadow,2016_Feb_18_1256,tuc,
target,stim/taco.png,1,13,33,18,space,0.967683076859,,,001,gabibi,59.971832154,prodShadow,2016_Feb_18_1256,tuc,
distractor,stim/silla.png,1,14,34,6,space,0.784783124924,,,001,gabibi,59.971832154,prodShadow,2016_Feb_18_1256,tuc,
distractor,stim/sol.png,1,15,35,1,space,0.984088182449,,,001,gabibi,59.971832154,prodShadow,2016_Feb_18_1256,tuc,
target,stim/topo.png,1,16,36,19,space,1.0307071209,,,001,gabibi,59.971832154,prodShadow,2016_Feb_18_1256,tuc,
target,stim/palo.png,1,17,37,16,space,1.01529216766,,,001,gabibi,59.971832154,prodShadow,2016_Feb_18_1256,tuc,
target,stim/bola.png,1,18,38,9,space,0.917855978012,,,001,gabibi,59.971832154,prodShadow,2016_Feb_18_1256,tuc,
target,stim/bala.png,1,19,39,8,space,0.98435997963,,,001,gabibi,59.971832154,prodShadow,2016_Feb_18_1256,tuc,
target,stim/dado.png,2,0,40,12,space,0.701020956039,,,001,gabibi,59.971832154,prodShadow,2016_Feb_18_1256,tuc,
target,stim/palo.png,2,1,41,16,space,0.934689998627,,,001,gabibi,59.971832154,prodShadow,2016_Feb_18_1256,tuc,
distractor,stim/mochila.png,2,2,42,7,space,1.25077104568,,,001,gabibi,59.971832154,prodShadow,2016_Feb_18_1256,tuc,
target,stim/taco.png,2,3,43,18,space,0.950923919678,,,001,gabibi,59.971832154,prodShadow,2016_Feb_18_1256,tuc,
target,stim/gato.png,2,4,44,14,space,1.23447108269,,,001,gabibi,59.971832154,prodShadow,2016_Feb_18_1256,tuc,
distractor,stim/manzana.png,2,5,45,4,space,0.930993080139,,,001,gabibi,59.971832154,prodShadow,2016_Feb_18_1256,tuc,
distractor,stim/arbol.png,2,6,46,2,space,1.10103106499,,,001,gabibi,59.971832154,prodShadow,2016_Feb_18_1256,tuc,
target,stim/caca.png,2,7,47,10,space,0.866812944412,,,001,gabibi,59.971832154,prodShadow,2016_Feb_18_1256,tuc,
target,stim/gota.png,2,8,48,15,space,1.05102109909,,,001,gabibi,59.971832154,prodShadow,2016_Feb_18_1256,tuc,
distractor,stim/libro.png,2,9,49,5,space,0.984688997269,,,001,gabibi,59.971832154,prodShadow,2016_Feb_18_1256,tuc,
distractor,stim/silla.png,2,10,50,6,space,0.830367088318,,,001,gabibi,59.971832154,prodShadow,2016_Feb_18_1256,tuc,
target,stim/coco.png,2,11,51,11,space,0.91742682457,,,001,gabibi,59.971832154,prodShadow,2016_Feb_18_1256,tuc,
distractor,stim/lapiz.png,2,12,52,3,space,1.13454604149,,,001,gabibi,59.971832154,prodShadow,2016_Feb_18_1256,tuc,
distractor,stim/sombrero.png,2,13,53,0,space,0.884567022324,,,001,gabibi,59.971832154,prodShadow,2016_Feb_18_1256,tuc,
target,stim/polo.png,2,14,54,17,space,1.08404183388,,,001,gabibi,59.971832154,prodShadow,2016_Feb_18_1256,tuc,
target,stim/topo.png,2,15,55,19,space,0.951549053192,,,001,gabibi,59.971832154,prodShadow,2016_Feb_18_1256,tuc,
target,stim/bola.png,2,16,56,9,space,0.95098400116,,,001,gabibi,59.971832154,prodShadow,2016_Feb_18_1256,tuc,
distractor,stim/sol.png,2,17,57,1,space,0.816825866699,,,001,gabibi,59.971832154,prodShadow,2016_Feb_18_1256,tuc,
target,stim/bala.png,2,18,58,8,space,0.914343118668,,,001,gabibi,59.971832154,prodShadow,2016_Feb_18_1256,tuc,
target,stim/dodo.png,2,19,59,13,space,0.980921983719,,,001,gabibi,59.971832154,prodShadow,2016_Feb_18_1256,tuc,
,,,,,,,,space,3.31705904007,001,gabibi,59.971832154,prodShadow,2016_Feb_18_1256,tuc,
