status,text,stim,trials.thisRepN,trials.thisTrialN,trials.thisN,trials.thisIndex,key_resp_3.keys,key_resp_3.rt,key_resp_2.keys,key_resp_2.rt,key_resp_4.keys,key_resp_4.rt,session,participant,frameRate,expName,date,condition,
,,,,,,,space,9.16766095161,,,,,006,jkw,59.9574295937,prodShadow,2015_Aug_09_1623,midd,
target,kiki,stim/kiki.wav,0,0,0,30,,,space,1.26739597321,,,006,jkw,59.9574295937,prodShadow,2015_Aug_09_1623,midd,
pname,topo,stim/topo.wav,0,1,1,46,,,space,1.06669998169,,,006,jkw,59.9574295937,prodShadow,2015_Aug_09_1623,midd,
target,kuku,stim/kuku.wav,0,2,2,32,,,space,1.13444280624,,,006,jkw,59.9574295937,prodShadow,2015_Aug_09_1623,midd,
target,paka,stim/paka.wav,0,3,3,35,,,space,1.1001188755,,,006,jkw,59.9574295937,prodShadow,2015_Aug_09_1623,midd,
target,biki,stim/biki.wav,0,4,4,5,,,space,1.4336669445,,,006,jkw,59.9574295937,prodShadow,2015_Aug_09_1623,midd,
distractor,ada,stim/ada.wav,0,5,5,0,,,space,1.21807193756,,,006,jkw,59.9574295937,prodShadow,2015_Aug_09_1623,midd,
target,toko,stim/toko.wav,0,6,6,47,,,space,1.1830830574,,,006,jkw,59.9574295937,prodShadow,2015_Aug_09_1623,midd,
target,keke,stim/keke.wav,0,7,7,29,,,space,1.16746091843,,,006,jkw,59.9574295937,prodShadow,2015_Aug_09_1623,midd,
target,deke,stim/deke.wav,0,8,8,13,,,space,1.4832239151,,,006,jkw,59.9574295937,prodShadow,2015_Aug_09_1623,midd,
pname,coco,stim/coco.wav,0,9,9,10,,,space,1.41756010056,,,006,jkw,59.9574295937,prodShadow,2015_Aug_09_1623,midd,
target,baka,stim/baka.wav,0,10,10,2,,,space,1.36715006828,,,006,jkw,59.9574295937,prodShadow,2015_Aug_09_1623,midd,
distractor,eda,stim/eda.wav,0,11,11,18,,,space,1.0834980011,,,006,jkw,59.9574295937,prodShadow,2015_Aug_09_1623,midd,
target,doko,stim/doko.wav,0,12,12,16,,,space,1.2498960495,,,006,jkw,59.9574295937,prodShadow,2015_Aug_09_1623,midd,
target,puku,stim/puku.wav,0,13,13,41,,,space,1.18399715424,,,006,jkw,59.9574295937,prodShadow,2015_Aug_09_1623,midd,
distractor,oba,stim/oba.wav,0,14,14,33,,,space,1.06731510162,,,006,jkw,59.9574295937,prodShadow,2015_Aug_09_1623,midd,
distractor,apa,stim/apa.wav,0,15,15,1,,,space,1.20087003708,,,006,jkw,59.9574295937,prodShadow,2015_Aug_09_1623,midd,
pname,dado,stim/dado.wav,0,16,16,11,,,space,1.26800107956,,,006,jkw,59.9574295937,prodShadow,2015_Aug_09_1623,midd,
target,goko,stim/goko.wav,0,17,17,24,,,space,1.55059313774,,,006,jkw,59.9574295937,prodShadow,2015_Aug_09_1623,midd,
distractor,epa,stim/epa.wav,0,18,18,19,,,space,1.11671090126,,,006,jkw,59.9574295937,prodShadow,2015_Aug_09_1623,midd,
target,piki,stim/piki.wav,0,19,19,38,,,space,1.03313708305,,,006,jkw,59.9574295937,prodShadow,2015_Aug_09_1623,midd,
target,poko,stim/poko.wav,0,20,20,39,,,space,0.968055963516,,,006,jkw,59.9574295937,prodShadow,2015_Aug_09_1623,midd,
target,daka,stim/daka.wav,0,21,21,12,,,space,1.00037193298,,,006,jkw,59.9574295937,prodShadow,2015_Aug_09_1623,midd,
pname,gato,stim/gato.wav,0,22,22,21,,,space,1.50017690659,,,006,jkw,59.9574295937,prodShadow,2015_Aug_09_1623,midd,
distractor,ita,stim/ita.wav,0,23,23,27,,,space,1.21655392647,,,006,jkw,59.9574295937,prodShadow,2015_Aug_09_1623,midd,
target,koko,stim/koko.wav,0,24,24,31,,,space,1.25057601929,,,006,jkw,59.9574295937,prodShadow,2015_Aug_09_1623,midd,
pname,gota,stim/gota.wav,0,25,25,25,,,space,1.26749992371,,,006,jkw,59.9574295937,prodShadow,2015_Aug_09_1623,midd,
target,peke,stim/peke.wav,0,26,26,37,,,space,1.15019106865,,,006,jkw,59.9574295937,prodShadow,2015_Aug_09_1623,midd,
target,tiki,stim/tiki.wav,0,27,27,45,,,space,1.1507589817,,,006,jkw,59.9574295937,prodShadow,2015_Aug_09_1623,midd,
target,geke,stim/geke.wav,0,28,28,22,,,space,1.30033516884,,,006,jkw,59.9574295937,prodShadow,2015_Aug_09_1623,midd,
target,teke,stim/teke.wav,0,29,29,44,,,space,1.33470892906,,,006,jkw,59.9574295937,prodShadow,2015_Aug_09_1623,midd,
pname,dodo,stim/dodo.wav,0,30,30,15,,,space,1.21662378311,,,006,jkw,59.9574295937,prodShadow,2015_Aug_09_1623,midd,
pname,taco,stim/taco.wav,0,31,31,42,,,space,1.34970092773,,,006,jkw,59.9574295937,prodShadow,2015_Aug_09_1623,midd,
target,beke,stim/beke.wav,0,32,32,4,,,space,1.45032000542,,,006,jkw,59.9574295937,prodShadow,2015_Aug_09_1623,midd,
target,kaka,stim/kaka.wav,0,33,33,28,,,space,1.20163917542,,,006,jkw,59.9574295937,prodShadow,2015_Aug_09_1623,midd,
distractor,oka,stim/oka.wav,0,34,34,34,,,space,1.23478507996,,,006,jkw,59.9574295937,prodShadow,2015_Aug_09_1623,midd,
target,guku,stim/guku.wav,0,35,35,26,,,space,1.24989199638,,,006,jkw,59.9574295937,prodShadow,2015_Aug_09_1623,midd,
pname,bala,stim/bala.wav,0,36,36,3,,,space,1.25074696541,,,006,jkw,59.9574295937,prodShadow,2015_Aug_09_1623,midd,
target,giki,stim/giki.wav,0,37,37,23,,,space,1.11799097061,,,006,jkw,59.9574295937,prodShadow,2015_Aug_09_1623,midd,
target,buku,stim/buku.wav,0,38,38,8,,,space,1.2836959362,,,006,jkw,59.9574295937,prodShadow,2015_Aug_09_1623,midd,
target,duku,stim/duku.wav,0,39,39,17,,,space,1.30024409294,,,006,jkw,59.9574295937,prodShadow,2015_Aug_09_1623,midd,
target,tuku,stim/tuku.wav,0,40,40,48,,,space,1.24949193001,,,006,jkw,59.9574295937,prodShadow,2015_Aug_09_1623,midd,
pname,caca,stim/caca.wav,0,41,41,9,,,space,1.13353490829,,,006,jkw,59.9574295937,prodShadow,2015_Aug_09_1623,midd,
pname,polo,stim/polo.wav,0,42,42,40,,,space,1.1509449482,,,006,jkw,59.9574295937,prodShadow,2015_Aug_09_1623,midd,
pname,palo,stim/palo.wav,0,43,43,36,,,space,1.01744198799,,,006,jkw,59.9574295937,prodShadow,2015_Aug_09_1623,midd,
pname,bola,stim/bola.wav,0,44,44,7,,,space,1.18373894691,,,006,jkw,59.9574295937,prodShadow,2015_Aug_09_1623,midd,
target,diki,stim/diki.wav,0,45,45,14,,,space,1.0847671032,,,006,jkw,59.9574295937,prodShadow,2015_Aug_09_1623,midd,
target,taka,stim/taka.wav,0,46,46,43,,,space,1.16738390923,,,006,jkw,59.9574295937,prodShadow,2015_Aug_09_1623,midd,
target,gaka,stim/gaka.wav,0,47,47,20,,,space,1.25106310844,,,006,jkw,59.9574295937,prodShadow,2015_Aug_09_1623,midd,
distractor,uta,stim/uta.wav,0,48,48,49,,,space,1.06772303581,,,006,jkw,59.9574295937,prodShadow,2015_Aug_09_1623,midd,
target,boko,stim/boko.wav,0,49,49,6,,,space,1.16719484329,,,006,jkw,59.9574295937,prodShadow,2015_Aug_09_1623,midd,
target,beke,stim/beke.wav,1,0,50,4,,,space,1.45017194748,,,006,jkw,59.9574295937,prodShadow,2015_Aug_09_1623,midd,
target,teke,stim/teke.wav,1,1,51,44,,,space,1.15106201172,,,006,jkw,59.9574295937,prodShadow,2015_Aug_09_1623,midd,
target,guku,stim/guku.wav,1,2,52,26,,,space,1.20114898682,,,006,jkw,59.9574295937,prodShadow,2015_Aug_09_1623,midd,
target,diki,stim/diki.wav,1,3,53,14,,,space,1.16779589653,,,006,jkw,59.9574295937,prodShadow,2015_Aug_09_1623,midd,
distractor,ada,stim/ada.wav,1,4,54,0,,,space,1.30157089233,,,006,jkw,59.9574295937,prodShadow,2015_Aug_09_1623,midd,
target,kiki,stim/kiki.wav,1,5,55,30,,,space,1.1509718895,,,006,jkw,59.9574295937,prodShadow,2015_Aug_09_1623,midd,
pname,dodo,stim/dodo.wav,1,6,56,15,,,space,1.26641082764,,,006,jkw,59.9574295937,prodShadow,2015_Aug_09_1623,midd,
target,kuku,stim/kuku.wav,1,7,57,32,,,space,1.18417286873,,,006,jkw,59.9574295937,prodShadow,2015_Aug_09_1623,midd,
target,puku,stim/puku.wav,1,8,58,41,,,space,1.21674895287,,,006,jkw,59.9574295937,prodShadow,2015_Aug_09_1623,midd,
target,gaka,stim/gaka.wav,1,9,59,20,,,space,1.23375916481,,,006,jkw,59.9574295937,prodShadow,2015_Aug_09_1623,midd,
pname,caca,stim/caca.wav,1,10,60,9,,,space,1.23416519165,,,006,jkw,59.9574295937,prodShadow,2015_Aug_09_1623,midd,
pname,polo,stim/polo.wav,1,11,61,40,,,space,1.11770200729,,,006,jkw,59.9574295937,prodShadow,2015_Aug_09_1623,midd,
distractor,ita,stim/ita.wav,1,12,62,27,,,space,1.0674431324,,,006,jkw,59.9574295937,prodShadow,2015_Aug_09_1623,midd,
target,peke,stim/peke.wav,1,13,63,37,,,space,1.01786494255,,,006,jkw,59.9574295937,prodShadow,2015_Aug_09_1623,midd,
pname,palo,stim/palo.wav,1,14,64,36,,,space,1.05078196526,,,006,jkw,59.9574295937,prodShadow,2015_Aug_09_1623,midd,
target,deke,stim/deke.wav,1,15,65,13,,,space,1.26753616333,,,006,jkw,59.9574295937,prodShadow,2015_Aug_09_1623,midd,
target,daka,stim/daka.wav,1,16,66,12,,,space,1.13373708725,,,006,jkw,59.9574295937,prodShadow,2015_Aug_09_1623,midd,
pname,taco,stim/taco.wav,1,17,67,42,,,space,1.05048298836,,,006,jkw,59.9574295937,prodShadow,2015_Aug_09_1623,midd,
target,giki,stim/giki.wav,1,18,68,23,,,space,1.01697897911,,,006,jkw,59.9574295937,prodShadow,2015_Aug_09_1623,midd,
target,toko,stim/toko.wav,1,19,69,47,,,space,1.13378095627,,,006,jkw,59.9574295937,prodShadow,2015_Aug_09_1623,midd,
target,paka,stim/paka.wav,1,20,70,35,,,space,0.967521905899,,,006,jkw,59.9574295937,prodShadow,2015_Aug_09_1623,midd,
target,tiki,stim/tiki.wav,1,21,71,45,,,space,1.13302302361,,,006,jkw,59.9574295937,prodShadow,2015_Aug_09_1623,midd,
distractor,epa,stim/epa.wav,1,22,72,19,,,space,1.00014781952,,,006,jkw,59.9574295937,prodShadow,2015_Aug_09_1623,midd,
pname,dado,stim/dado.wav,1,23,73,11,,,space,1.36739802361,,,006,jkw,59.9574295937,prodShadow,2015_Aug_09_1623,midd,
target,taka,stim/taka.wav,1,24,74,43,,,space,1.26675891876,,,006,jkw,59.9574295937,prodShadow,2015_Aug_09_1623,midd,
distractor,eda,stim/eda.wav,1,25,75,18,,,space,1.31687378883,,,006,jkw,59.9574295937,prodShadow,2015_Aug_09_1623,midd,
target,buku,stim/buku.wav,1,26,76,8,,,space,1.18384218216,,,006,jkw,59.9574295937,prodShadow,2015_Aug_09_1623,midd,
target,baka,stim/baka.wav,1,27,77,2,,,space,1.96790099144,,,006,jkw,59.9574295937,prodShadow,2015_Aug_09_1623,midd,
distractor,oka,stim/oka.wav,1,28,78,34,,,space,1.26728177071,,,006,jkw,59.9574295937,prodShadow,2015_Aug_09_1623,midd,
target,tuku,stim/tuku.wav,1,29,79,48,,,space,1.26753592491,,,006,jkw,59.9574295937,prodShadow,2015_Aug_09_1623,midd,
pname,bola,stim/bola.wav,1,30,80,7,,,space,1.23383378983,,,006,jkw,59.9574295937,prodShadow,2015_Aug_09_1623,midd,
target,goko,stim/goko.wav,1,31,81,24,,,space,1.21798491478,,,006,jkw,59.9574295937,prodShadow,2015_Aug_09_1623,midd,
pname,coco,stim/coco.wav,1,32,82,10,,,space,1.23318099976,,,006,jkw,59.9574295937,prodShadow,2015_Aug_09_1623,midd,
pname,topo,stim/topo.wav,1,33,83,46,,,space,1.06685209274,,,006,jkw,59.9574295937,prodShadow,2015_Aug_09_1623,midd,
target,piki,stim/piki.wav,1,34,84,38,,,space,0.999868869781,,,006,jkw,59.9574295937,prodShadow,2015_Aug_09_1623,midd,
distractor,apa,stim/apa.wav,1,35,85,1,,,space,1.18355298042,,,006,jkw,59.9574295937,prodShadow,2015_Aug_09_1623,midd,
target,biki,stim/biki.wav,1,36,86,5,,,space,1.30033397675,,,006,jkw,59.9574295937,prodShadow,2015_Aug_09_1623,midd,
distractor,oba,stim/oba.wav,1,37,87,33,,,space,1.06712698936,,,006,jkw,59.9574295937,prodShadow,2015_Aug_09_1623,midd,
distractor,uta,stim/uta.wav,1,38,88,49,,,space,1.08356690407,,,006,jkw,59.9574295937,prodShadow,2015_Aug_09_1623,midd,
target,poko,stim/poko.wav,1,39,89,39,,,space,0.984156847,,,006,jkw,59.9574295937,prodShadow,2015_Aug_09_1623,midd,
target,koko,stim/koko.wav,1,40,90,31,,,space,1.18431282043,,,006,jkw,59.9574295937,prodShadow,2015_Aug_09_1623,midd,
pname,gota,stim/gota.wav,1,41,91,25,,,space,1.30072379112,,,006,jkw,59.9574295937,prodShadow,2015_Aug_09_1623,midd,
target,doko,stim/doko.wav,1,42,92,16,,,space,1.18333721161,,,006,jkw,59.9574295937,prodShadow,2015_Aug_09_1623,midd,
target,keke,stim/keke.wav,1,43,93,29,,,space,1.21762490273,,,006,jkw,59.9574295937,prodShadow,2015_Aug_09_1623,midd,
target,boko,stim/boko.wav,1,44,94,6,,,space,1.3671309948,,,006,jkw,59.9574295937,prodShadow,2015_Aug_09_1623,midd,
target,duku,stim/duku.wav,1,45,95,17,,,space,1.2510778904,,,006,jkw,59.9574295937,prodShadow,2015_Aug_09_1623,midd,
target,kaka,stim/kaka.wav,1,46,96,28,,,space,1.15075111389,,,006,jkw,59.9574295937,prodShadow,2015_Aug_09_1623,midd,
target,geke,stim/geke.wav,1,47,97,22,,,space,1.16638898849,,,006,jkw,59.9574295937,prodShadow,2015_Aug_09_1623,midd,
pname,bala,stim/bala.wav,1,48,98,3,,,space,1.08367300034,,,006,jkw,59.9574295937,prodShadow,2015_Aug_09_1623,midd,
pname,gato,stim/gato.wav,1,49,99,21,,,space,1.4331817627,,,006,jkw,59.9574295937,prodShadow,2015_Aug_09_1623,midd,
target,koko,stim/koko.wav,2,0,100,31,,,space,1.1505279541,,,006,jkw,59.9574295937,prodShadow,2015_Aug_09_1623,midd,
target,tiki,stim/tiki.wav,2,1,101,45,,,space,1.11715888977,,,006,jkw,59.9574295937,prodShadow,2015_Aug_09_1623,midd,
pname,gota,stim/gota.wav,2,2,102,25,,,space,1.2176399231,,,006,jkw,59.9574295937,prodShadow,2015_Aug_09_1623,midd,
target,kiki,stim/kiki.wav,2,3,103,30,,,space,1.06816887856,,,006,jkw,59.9574295937,prodShadow,2015_Aug_09_1623,midd,
target,taka,stim/taka.wav,2,4,104,43,,,space,1.11733913422,,,006,jkw,59.9574295937,prodShadow,2015_Aug_09_1623,midd,
target,duku,stim/duku.wav,2,5,105,17,,,space,1.26746892929,,,006,jkw,59.9574295937,prodShadow,2015_Aug_09_1623,midd,
pname,gato,stim/gato.wav,2,6,106,21,,,space,1.38448691368,,,006,jkw,59.9574295937,prodShadow,2015_Aug_09_1623,midd,
target,daka,stim/daka.wav,2,7,107,12,,,space,1.15038514137,,,006,jkw,59.9574295937,prodShadow,2015_Aug_09_1623,midd,
pname,topo,stim/topo.wav,2,8,108,46,,,space,1.04960680008,,,006,jkw,59.9574295937,prodShadow,2015_Aug_09_1623,midd,
pname,coco,stim/coco.wav,2,9,109,10,,,space,1.21788215637,,,006,jkw,59.9574295937,prodShadow,2015_Aug_09_1623,midd,
target,deke,stim/deke.wav,2,10,110,13,,,space,1.3837120533,,,006,jkw,59.9574295937,prodShadow,2015_Aug_09_1623,midd,
target,guku,stim/guku.wav,2,11,111,26,,,space,1.3000099659,,,006,jkw,59.9574295937,prodShadow,2015_Aug_09_1623,midd,
target,boko,stim/boko.wav,2,12,112,6,,,space,1.31673693657,,,006,jkw,59.9574295937,prodShadow,2015_Aug_09_1623,midd,
target,tuku,stim/tuku.wav,2,13,113,48,,,space,1.21740102768,,,006,jkw,59.9574295937,prodShadow,2015_Aug_09_1623,midd,
distractor,oba,stim/oba.wav,2,14,114,33,,,space,1.18439698219,,,006,jkw,59.9574295937,prodShadow,2015_Aug_09_1623,midd,
target,beke,stim/beke.wav,2,15,115,4,,,space,1.30052495003,,,006,jkw,59.9574295937,prodShadow,2015_Aug_09_1623,midd,
target,giki,stim/giki.wav,2,16,116,23,,,space,1.10013008118,,,006,jkw,59.9574295937,prodShadow,2015_Aug_09_1623,midd,
pname,bola,stim/bola.wav,2,17,117,7,,,space,1.3836350441,,,006,jkw,59.9574295937,prodShadow,2015_Aug_09_1623,midd,
target,paka,stim/paka.wav,2,18,118,35,,,space,1.10050296783,,,006,jkw,59.9574295937,prodShadow,2015_Aug_09_1623,midd,
target,toko,stim/toko.wav,2,19,119,47,,,space,1.18432998657,,,006,jkw,59.9574295937,prodShadow,2015_Aug_09_1623,midd,
distractor,oka,stim/oka.wav,2,20,120,34,,,space,1.3003950119,,,006,jkw,59.9574295937,prodShadow,2015_Aug_09_1623,midd,
target,kaka,stim/kaka.wav,2,21,121,28,,,space,1.15056204796,,,006,jkw,59.9574295937,prodShadow,2015_Aug_09_1623,midd,
target,doko,stim/doko.wav,2,22,122,16,,,space,1.45116305351,,,006,jkw,59.9574295937,prodShadow,2015_Aug_09_1623,midd,
pname,dodo,stim/dodo.wav,2,23,123,15,,,space,1.18379998207,,,006,jkw,59.9574295937,prodShadow,2015_Aug_09_1623,midd,
target,teke,stim/teke.wav,2,24,124,44,,,space,1.16707015038,,,006,jkw,59.9574295937,prodShadow,2015_Aug_09_1623,midd,
target,diki,stim/diki.wav,2,25,125,14,,,space,1.16808080673,,,006,jkw,59.9574295937,prodShadow,2015_Aug_09_1623,midd,
pname,caca,stim/caca.wav,2,26,126,9,,,space,1.15075397491,,,006,jkw,59.9574295937,prodShadow,2015_Aug_09_1623,midd,
pname,dado,stim/dado.wav,2,27,127,11,,,space,1.30097317696,,,006,jkw,59.9574295937,prodShadow,2015_Aug_09_1623,midd,
pname,palo,stim/palo.wav,2,28,128,36,,,space,1.13392686844,,,006,jkw,59.9574295937,prodShadow,2015_Aug_09_1623,midd,
target,baka,stim/baka.wav,2,29,129,2,,,space,1.16724205017,,,006,jkw,59.9574295937,prodShadow,2015_Aug_09_1623,midd,
distractor,eda,stim/eda.wav,2,30,130,18,,,space,1.11756300926,,,006,jkw,59.9574295937,prodShadow,2015_Aug_09_1623,midd,
target,kuku,stim/kuku.wav,2,31,131,32,,,space,1.11744093895,,,006,jkw,59.9574295937,prodShadow,2015_Aug_09_1623,midd,
distractor,uta,stim/uta.wav,2,32,132,49,,,space,1.16744399071,,,006,jkw,59.9574295937,prodShadow,2015_Aug_09_1623,midd,
target,puku,stim/puku.wav,2,33,133,41,,,space,1.10052418709,,,006,jkw,59.9574295937,prodShadow,2015_Aug_09_1623,midd,
distractor,ada,stim/ada.wav,2,34,134,0,,,space,1.20058894157,,,006,jkw,59.9574295937,prodShadow,2015_Aug_09_1623,midd,
target,buku,stim/buku.wav,2,35,135,8,,,space,1.3172519207,,,006,jkw,59.9574295937,prodShadow,2015_Aug_09_1623,midd,
target,piki,stim/piki.wav,2,36,136,38,,,space,1.03442287445,,,006,jkw,59.9574295937,prodShadow,2015_Aug_09_1623,midd,
distractor,apa,stim/apa.wav,2,37,137,1,,,space,0.983870983124,,,006,jkw,59.9574295937,prodShadow,2015_Aug_09_1623,midd,
target,geke,stim/geke.wav,2,38,138,22,,,space,1.21747612953,,,006,jkw,59.9574295937,prodShadow,2015_Aug_09_1623,midd,
distractor,epa,stim/epa.wav,2,39,139,19,,,space,1.13407897949,,,006,jkw,59.9574295937,prodShadow,2015_Aug_09_1623,midd,
pname,taco,stim/taco.wav,2,40,140,42,,,space,1.11750602722,,,006,jkw,59.9574295937,prodShadow,2015_Aug_09_1623,midd,
target,goko,stim/goko.wav,2,41,141,24,,,space,1.20064210892,,,006,jkw,59.9574295937,prodShadow,2015_Aug_09_1623,midd,
target,poko,stim/poko.wav,2,42,142,39,,,space,0.967258214951,,,006,jkw,59.9574295937,prodShadow,2015_Aug_09_1623,midd,
pname,bala,stim/bala.wav,2,43,143,3,,,space,1.06751799583,,,006,jkw,59.9574295937,prodShadow,2015_Aug_09_1623,midd,
target,gaka,stim/gaka.wav,2,44,144,20,,,space,1.2001979351,,,006,jkw,59.9574295937,prodShadow,2015_Aug_09_1623,midd,
distractor,ita,stim/ita.wav,2,45,145,27,,,space,1.08431601524,,,006,jkw,59.9574295937,prodShadow,2015_Aug_09_1623,midd,
target,keke,stim/keke.wav,2,46,146,29,,,space,1.18409490585,,,006,jkw,59.9574295937,prodShadow,2015_Aug_09_1623,midd,
target,peke,stim/peke.wav,2,47,147,37,,,space,1.08407092094,,,006,jkw,59.9574295937,prodShadow,2015_Aug_09_1623,midd,
target,biki,stim/biki.wav,2,48,148,5,,,space,1.33424401283,,,006,jkw,59.9574295937,prodShadow,2015_Aug_09_1623,midd,
pname,polo,stim/polo.wav,2,49,149,40,,,space,1.06738805771,,,006,jkw,59.9574295937,prodShadow,2015_Aug_09_1623,midd,
,,,,,,,,,,,space,12.6177999973,006,jkw,59.9574295937,prodShadow,2015_Aug_09_1623,midd,
