status,text,stim,trials.thisRepN,trials.thisTrialN,trials.thisN,trials.thisIndex,key_resp_3.keys,key_resp_3.rt,key_resp_2.keys,key_resp_2.rt,key_resp_4.keys,key_resp_4.rt,session,participant,frameRate,expName,date,condition,
,,,,,,,space,1.9337580204,,,,,005,mav,60.0070961761,prodShadow,2015_Aug_02_1422,midd,
target,biki,stim/biki.wav,0,0,0,5,,,space,1.41756510735,,,005,mav,60.0070961761,prodShadow,2015_Aug_02_1422,midd,
target,geke,stim/geke.wav,0,1,1,22,,,space,1.25080299377,,,005,mav,60.0070961761,prodShadow,2015_Aug_02_1422,midd,
target,kiki,stim/kiki.wav,0,2,2,30,,,space,1.16733884811,,,005,mav,60.0070961761,prodShadow,2015_Aug_02_1422,midd,
target,teke,stim/teke.wav,0,3,3,44,,,space,1.03385996819,,,005,mav,60.0070961761,prodShadow,2015_Aug_02_1422,midd,
pname,taco,stim/taco.wav,0,4,4,42,,,space,1.15089488029,,,005,mav,60.0070961761,prodShadow,2015_Aug_02_1422,midd,
pname,palo,stim/palo.wav,0,5,5,36,,,space,1.15072703362,,,005,mav,60.0070961761,prodShadow,2015_Aug_02_1422,midd,
distractor,ita,stim/ita.wav,0,6,6,27,,,space,1.85064506531,,,005,mav,60.0070961761,prodShadow,2015_Aug_02_1422,midd,
target,deke,stim/deke.wav,0,7,7,13,,,space,1.61747503281,,,005,mav,60.0070961761,prodShadow,2015_Aug_02_1422,midd,
distractor,uta,stim/uta.wav,0,8,8,49,,,space,1.33379507065,,,005,mav,60.0070961761,prodShadow,2015_Aug_02_1422,midd,
target,piki,stim/piki.wav,0,9,9,38,,,space,1.11733293533,,,005,mav,60.0070961761,prodShadow,2015_Aug_02_1422,midd,
target,diki,stim/diki.wav,0,10,10,14,,,space,1.23394703865,,,005,mav,60.0070961761,prodShadow,2015_Aug_02_1422,midd,
distractor,epa,stim/epa.wav,0,11,11,19,,,space,1.03394293785,,,005,mav,60.0070961761,prodShadow,2015_Aug_02_1422,midd,
target,taka,stim/taka.wav,0,12,12,43,,,space,1.20089483261,,,005,mav,60.0070961761,prodShadow,2015_Aug_02_1422,midd,
target,guku,stim/guku.wav,0,13,13,26,,,space,1.18416881561,,,005,mav,60.0070961761,prodShadow,2015_Aug_02_1422,midd,
pname,gota,stim/gota.wav,0,14,14,25,,,space,1.36763906479,,,005,mav,60.0070961761,prodShadow,2015_Aug_02_1422,midd,
target,paka,stim/paka.wav,0,15,15,35,,,space,1.13397312164,,,005,mav,60.0070961761,prodShadow,2015_Aug_02_1422,midd,
pname,caca,stim/caca.wav,0,16,16,9,,,space,1.11688780785,,,005,mav,60.0070961761,prodShadow,2015_Aug_02_1422,midd,
target,giki,stim/giki.wav,0,17,17,23,,,space,1.11737298965,,,005,mav,60.0070961761,prodShadow,2015_Aug_02_1422,midd,
pname,topo,stim/topo.wav,0,18,18,46,,,space,0.934307098389,,,005,mav,60.0070961761,prodShadow,2015_Aug_02_1422,midd,
distractor,apa,stim/apa.wav,0,19,19,1,,,space,1.0510559082,,,005,mav,60.0070961761,prodShadow,2015_Aug_02_1422,midd,
pname,gato,stim/gato.wav,0,20,20,21,,,space,1.35052204132,,,005,mav,60.0070961761,prodShadow,2015_Aug_02_1422,midd,
pname,dado,stim/dado.wav,0,21,21,11,,,space,1.20059204102,,,005,mav,60.0070961761,prodShadow,2015_Aug_02_1422,midd,
distractor,oba,stim/oba.wav,0,22,22,33,,,space,1.1004960537,,,005,mav,60.0070961761,prodShadow,2015_Aug_02_1422,midd,
target,koko,stim/koko.wav,0,23,23,31,,,space,1.13432097435,,,005,mav,60.0070961761,prodShadow,2015_Aug_02_1422,midd,
distractor,oka,stim/oka.wav,0,24,24,34,,,space,1.1672770977,,,005,mav,60.0070961761,prodShadow,2015_Aug_02_1422,midd,
target,gaka,stim/gaka.wav,0,25,25,20,,,space,1.10068798065,,,005,mav,60.0070961761,prodShadow,2015_Aug_02_1422,midd,
target,puku,stim/puku.wav,0,26,26,41,,,space,1.0837700367,,,005,mav,60.0070961761,prodShadow,2015_Aug_02_1422,midd,
target,duku,stim/duku.wav,0,27,27,17,,,space,1.25079202652,,,005,mav,60.0070961761,prodShadow,2015_Aug_02_1422,midd,
pname,dodo,stim/dodo.wav,0,28,28,15,,,space,1.11730694771,,,005,mav,60.0070961761,prodShadow,2015_Aug_02_1422,midd,
distractor,eda,stim/eda.wav,0,29,29,18,,,space,1.05044102669,,,005,mav,60.0070961761,prodShadow,2015_Aug_02_1422,midd,
target,goko,stim/goko.wav,0,30,30,24,,,space,1.20042109489,,,005,mav,60.0070961761,prodShadow,2015_Aug_02_1422,midd,
target,tiki,stim/tiki.wav,0,31,31,45,,,space,1.10089898109,,,005,mav,60.0070961761,prodShadow,2015_Aug_02_1422,midd,
target,daka,stim/daka.wav,0,32,32,12,,,space,1.18402385712,,,005,mav,60.0070961761,prodShadow,2015_Aug_02_1422,midd,
target,buku,stim/buku.wav,0,33,33,8,,,space,1.26730203629,,,005,mav,60.0070961761,prodShadow,2015_Aug_02_1422,midd,
pname,bala,stim/bala.wav,0,34,34,3,,,space,1.26748490334,,,005,mav,60.0070961761,prodShadow,2015_Aug_02_1422,midd,
distractor,ada,stim/ada.wav,0,35,35,0,,,space,1.25045681,,,005,mav,60.0070961761,prodShadow,2015_Aug_02_1422,midd,
pname,coco,stim/coco.wav,0,36,36,10,,,space,1.25098180771,,,005,mav,60.0070961761,prodShadow,2015_Aug_02_1422,midd,
target,kaka,stim/kaka.wav,0,37,37,28,,,space,1.16751194,,,005,mav,60.0070961761,prodShadow,2015_Aug_02_1422,midd,
target,baka,stim/baka.wav,0,38,38,2,,,space,1.20106101036,,,005,mav,60.0070961761,prodShadow,2015_Aug_02_1422,midd,
target,peke,stim/peke.wav,0,39,39,37,,,space,0.984089136124,,,005,mav,60.0070961761,prodShadow,2015_Aug_02_1422,midd,
target,kuku,stim/kuku.wav,0,40,40,32,,,space,1.01716995239,,,005,mav,60.0070961761,prodShadow,2015_Aug_02_1422,midd,
target,tuku,stim/tuku.wav,0,41,41,48,,,space,1.15078687668,,,005,mav,60.0070961761,prodShadow,2015_Aug_02_1422,midd,
target,doko,stim/doko.wav,0,42,42,16,,,space,1.30077004433,,,005,mav,60.0070961761,prodShadow,2015_Aug_02_1422,midd,
target,beke,stim/beke.wav,0,43,43,4,,,space,1.3842959404,,,005,mav,60.0070961761,prodShadow,2015_Aug_02_1422,midd,
target,boko,stim/boko.wav,0,44,44,6,,,space,1.28394699097,,,005,mav,60.0070961761,prodShadow,2015_Aug_02_1422,midd,
pname,bola,stim/bola.wav,0,45,45,7,,,space,1.21731281281,,,005,mav,60.0070961761,prodShadow,2015_Aug_02_1422,midd,
target,toko,stim/toko.wav,0,46,46,47,,,space,1.11729097366,,,005,mav,60.0070961761,prodShadow,2015_Aug_02_1422,midd,
pname,polo,stim/polo.wav,0,47,47,40,,,space,1.20089817047,,,005,mav,60.0070961761,prodShadow,2015_Aug_02_1422,midd,
target,poko,stim/poko.wav,0,48,48,39,,,space,1.01740288734,,,005,mav,60.0070961761,prodShadow,2015_Aug_02_1422,midd,
target,keke,stim/keke.wav,0,49,49,29,,,space,1.03434801102,,,005,mav,60.0070961761,prodShadow,2015_Aug_02_1422,midd,
target,doko,stim/doko.wav,1,0,50,16,,,space,1.30061292648,,,005,mav,60.0070961761,prodShadow,2015_Aug_02_1422,midd,
target,kaka,stim/kaka.wav,1,1,51,28,,,space,1.05059099197,,,005,mav,60.0070961761,prodShadow,2015_Aug_02_1422,midd,
target,puku,stim/puku.wav,1,2,52,41,,,space,1.26704692841,,,005,mav,60.0070961761,prodShadow,2015_Aug_02_1422,midd,
target,duku,stim/duku.wav,1,3,53,17,,,space,1.30091094971,,,005,mav,60.0070961761,prodShadow,2015_Aug_02_1422,midd,
pname,gato,stim/gato.wav,1,4,54,21,,,space,1.45101094246,,,005,mav,60.0070961761,prodShadow,2015_Aug_02_1422,midd,
target,piki,stim/piki.wav,1,5,55,38,,,space,1.1342010498,,,005,mav,60.0070961761,prodShadow,2015_Aug_02_1422,midd,
target,tuku,stim/tuku.wav,1,6,56,48,,,space,1.23411202431,,,005,mav,60.0070961761,prodShadow,2015_Aug_02_1422,midd,
pname,caca,stim/caca.wav,1,7,57,9,,,space,1.28408312798,,,005,mav,60.0070961761,prodShadow,2015_Aug_02_1422,midd,
target,toko,stim/toko.wav,1,8,58,47,,,space,1.31738400459,,,005,mav,60.0070961761,prodShadow,2015_Aug_02_1422,midd,
target,biki,stim/biki.wav,1,9,59,5,,,space,1.4177570343,,,005,mav,60.0070961761,prodShadow,2015_Aug_02_1422,midd,
pname,dado,stim/dado.wav,1,10,60,11,,,space,1.25040507317,,,005,mav,60.0070961761,prodShadow,2015_Aug_02_1422,midd,
distractor,oka,stim/oka.wav,1,11,61,34,,,space,1.31781888008,,,005,mav,60.0070961761,prodShadow,2015_Aug_02_1422,midd,
pname,bola,stim/bola.wav,1,12,62,7,,,space,1.26723790169,,,005,mav,60.0070961761,prodShadow,2015_Aug_02_1422,midd,
pname,dodo,stim/dodo.wav,1,13,63,15,,,space,1.13358402252,,,005,mav,60.0070961761,prodShadow,2015_Aug_02_1422,midd,
distractor,ita,stim/ita.wav,1,14,64,27,,,space,1.11754703522,,,005,mav,60.0070961761,prodShadow,2015_Aug_02_1422,midd,
target,gaka,stim/gaka.wav,1,15,65,20,,,space,1.18408799171,,,005,mav,60.0070961761,prodShadow,2015_Aug_02_1422,midd,
target,peke,stim/peke.wav,1,16,66,37,,,space,1.01731014252,,,005,mav,60.0070961761,prodShadow,2015_Aug_02_1422,midd,
target,tiki,stim/tiki.wav,1,17,67,45,,,space,1.1340341568,,,005,mav,60.0070961761,prodShadow,2015_Aug_02_1422,midd,
target,kiki,stim/kiki.wav,1,18,68,30,,,space,1.08388900757,,,005,mav,60.0070961761,prodShadow,2015_Aug_02_1422,midd,
target,keke,stim/keke.wav,1,19,69,29,,,space,1.16747093201,,,005,mav,60.0070961761,prodShadow,2015_Aug_02_1422,midd,
target,deke,stim/deke.wav,1,20,70,13,,,space,1.43374800682,,,005,mav,60.0070961761,prodShadow,2015_Aug_02_1422,midd,
pname,polo,stim/polo.wav,1,21,71,40,,,space,1.11724305153,,,005,mav,60.0070961761,prodShadow,2015_Aug_02_1422,midd,
distractor,eda,stim/eda.wav,1,22,72,18,,,space,1.11738109589,,,005,mav,60.0070961761,prodShadow,2015_Aug_02_1422,midd,
target,teke,stim/teke.wav,1,23,73,44,,,space,1.18422102928,,,005,mav,60.0070961761,prodShadow,2015_Aug_02_1422,midd,
target,diki,stim/diki.wav,1,24,74,14,,,space,1.11759495735,,,005,mav,60.0070961761,prodShadow,2015_Aug_02_1422,midd,
target,koko,stim/koko.wav,1,25,75,31,,,space,1.15119600296,,,005,mav,60.0070961761,prodShadow,2015_Aug_02_1422,midd,
target,beke,stim/beke.wav,1,26,76,4,,,space,1.46790194511,,,005,mav,60.0070961761,prodShadow,2015_Aug_02_1422,midd,
target,poko,stim/poko.wav,1,27,77,39,,,space,1.03416705132,,,005,mav,60.0070961761,prodShadow,2015_Aug_02_1422,midd,
target,baka,stim/baka.wav,1,28,78,2,,,space,1.23438191414,,,005,mav,60.0070961761,prodShadow,2015_Aug_02_1422,midd,
target,giki,stim/giki.wav,1,29,79,23,,,space,1.36747479439,,,005,mav,60.0070961761,prodShadow,2015_Aug_02_1422,midd,
target,paka,stim/paka.wav,1,30,80,35,,,space,1.1172990799,,,005,mav,60.0070961761,prodShadow,2015_Aug_02_1422,midd,
target,goko,stim/goko.wav,1,31,81,24,,,space,1.30063414574,,,005,mav,60.0070961761,prodShadow,2015_Aug_02_1422,midd,
pname,taco,stim/taco.wav,1,32,82,42,,,space,1.26741695404,,,005,mav,60.0070961761,prodShadow,2015_Aug_02_1422,midd,
target,kuku,stim/kuku.wav,1,33,83,32,,,space,1.25059604645,,,005,mav,60.0070961761,prodShadow,2015_Aug_02_1422,midd,
distractor,uta,stim/uta.wav,1,34,84,49,,,space,1.40072607994,,,005,mav,60.0070961761,prodShadow,2015_Aug_02_1422,midd,
pname,palo,stim/palo.wav,1,35,85,36,,,space,1.06761598587,,,005,mav,60.0070961761,prodShadow,2015_Aug_02_1422,midd,
target,geke,stim/geke.wav,1,36,86,22,,,space,1.21764492989,,,005,mav,60.0070961761,prodShadow,2015_Aug_02_1422,midd,
pname,coco,stim/coco.wav,1,37,87,10,,,space,1.26742196083,,,005,mav,60.0070961761,prodShadow,2015_Aug_02_1422,midd,
target,boko,stim/boko.wav,1,38,88,6,,,space,1.36727714539,,,005,mav,60.0070961761,prodShadow,2015_Aug_02_1422,midd,
pname,bala,stim/bala.wav,1,39,89,3,,,space,1.35079097748,,,005,mav,60.0070961761,prodShadow,2015_Aug_02_1422,midd,
target,guku,stim/guku.wav,1,40,90,26,,,space,1.38361692429,,,005,mav,60.0070961761,prodShadow,2015_Aug_02_1422,midd,
target,daka,stim/daka.wav,1,41,91,12,,,space,1.31748509407,,,005,mav,60.0070961761,prodShadow,2015_Aug_02_1422,midd,
distractor,oba,stim/oba.wav,1,42,92,33,,,space,1.20101690292,,,005,mav,60.0070961761,prodShadow,2015_Aug_02_1422,midd,
target,buku,stim/buku.wav,1,43,93,8,,,space,1.26746201515,,,005,mav,60.0070961761,prodShadow,2015_Aug_02_1422,midd,
pname,gota,stim/gota.wav,1,44,94,25,,,space,1.33392190933,,,005,mav,60.0070961761,prodShadow,2015_Aug_02_1422,midd,
target,taka,stim/taka.wav,1,45,95,43,,,space,1.18411517143,,,005,mav,60.0070961761,prodShadow,2015_Aug_02_1422,midd,
distractor,apa,stim/apa.wav,1,46,96,1,,,space,1.16769814491,,,005,mav,60.0070961761,prodShadow,2015_Aug_02_1422,midd,
distractor,ada,stim/ada.wav,1,47,97,0,,,space,1.15027689934,,,005,mav,60.0070961761,prodShadow,2015_Aug_02_1422,midd,
distractor,epa,stim/epa.wav,1,48,98,19,,,space,1.01714897156,,,005,mav,60.0070961761,prodShadow,2015_Aug_02_1422,midd,
pname,topo,stim/topo.wav,1,49,99,46,,,space,1.05059790611,,,005,mav,60.0070961761,prodShadow,2015_Aug_02_1422,midd,
distractor,eda,stim/eda.wav,2,0,100,18,,,space,1.13413691521,,,005,mav,60.0070961761,prodShadow,2015_Aug_02_1422,midd,
pname,gota,stim/gota.wav,2,1,101,25,,,space,1.36761903763,,,005,mav,60.0070961761,prodShadow,2015_Aug_02_1422,midd,
distractor,uta,stim/uta.wav,2,2,102,49,,,space,1.08409786224,,,005,mav,60.0070961761,prodShadow,2015_Aug_02_1422,midd,
target,kuku,stim/kuku.wav,2,3,103,32,,,space,1.10072898865,,,005,mav,60.0070961761,prodShadow,2015_Aug_02_1422,midd,
target,doko,stim/doko.wav,2,4,104,16,,,space,1.45095705986,,,005,mav,60.0070961761,prodShadow,2015_Aug_02_1422,midd,
target,keke,stim/keke.wav,2,5,105,29,,,space,1.30104398727,,,005,mav,60.0070961761,prodShadow,2015_Aug_02_1422,midd,
pname,taco,stim/taco.wav,2,6,106,42,,,space,1.16791200638,,,005,mav,60.0070961761,prodShadow,2015_Aug_02_1422,midd,
target,tiki,stim/tiki.wav,2,7,107,45,,,space,1.18406581879,,,005,mav,60.0070961761,prodShadow,2015_Aug_02_1422,midd,
pname,palo,stim/palo.wav,2,8,108,36,,,space,1.06728005409,,,005,mav,60.0070961761,prodShadow,2015_Aug_02_1422,midd,
pname,bala,stim/bala.wav,2,9,109,3,,,space,1.1841750145,,,005,mav,60.0070961761,prodShadow,2015_Aug_02_1422,midd,
distractor,ita,stim/ita.wav,2,10,110,27,,,space,1.10062098503,,,005,mav,60.0070961761,prodShadow,2015_Aug_02_1422,midd,
distractor,epa,stim/epa.wav,2,11,111,19,,,space,1.13397502899,,,005,mav,60.0070961761,prodShadow,2015_Aug_02_1422,midd,
target,taka,stim/taka.wav,2,12,112,43,,,space,1.11749482155,,,005,mav,60.0070961761,prodShadow,2015_Aug_02_1422,midd,
target,beke,stim/beke.wav,2,13,113,4,,,space,1.4009039402,,,005,mav,60.0070961761,prodShadow,2015_Aug_02_1422,midd,
pname,polo,stim/polo.wav,2,14,114,40,,,space,1.23399090767,,,005,mav,60.0070961761,prodShadow,2015_Aug_02_1422,midd,
target,piki,stim/piki.wav,2,15,115,38,,,space,1.05064892769,,,005,mav,60.0070961761,prodShadow,2015_Aug_02_1422,midd,
target,geke,stim/geke.wav,2,16,116,22,,,space,1.15097498894,,,005,mav,60.0070961761,prodShadow,2015_Aug_02_1422,midd,
target,tuku,stim/tuku.wav,2,17,117,48,,,space,1.21762704849,,,005,mav,60.0070961761,prodShadow,2015_Aug_02_1422,midd,
target,puku,stim/puku.wav,2,18,118,41,,,space,1.30101203918,,,005,mav,60.0070961761,prodShadow,2015_Aug_02_1422,midd,
distractor,ada,stim/ada.wav,2,19,119,0,,,space,1.15076518059,,,005,mav,60.0070961761,prodShadow,2015_Aug_02_1422,midd,
target,gaka,stim/gaka.wav,2,20,120,20,,,space,1.28418397903,,,005,mav,60.0070961761,prodShadow,2015_Aug_02_1422,midd,
pname,dodo,stim/dodo.wav,2,21,121,15,,,space,1.31705904007,,,005,mav,60.0070961761,prodShadow,2015_Aug_02_1422,midd,
target,poko,stim/poko.wav,2,22,122,39,,,space,1.00078201294,,,005,mav,60.0070961761,prodShadow,2015_Aug_02_1422,midd,
pname,dado,stim/dado.wav,2,23,123,11,,,space,1.18385887146,,,005,mav,60.0070961761,prodShadow,2015_Aug_02_1422,midd,
target,teke,stim/teke.wav,2,24,124,44,,,space,0.95049405098,,,005,mav,60.0070961761,prodShadow,2015_Aug_02_1422,midd,
distractor,oba,stim/oba.wav,2,25,125,33,,,space,1.15049815178,,,005,mav,60.0070961761,prodShadow,2015_Aug_02_1422,midd,
target,guku,stim/guku.wav,2,26,126,26,,,space,1.30087685585,,,005,mav,60.0070961761,prodShadow,2015_Aug_02_1422,midd,
pname,bola,stim/bola.wav,2,27,127,7,,,space,1.28422379494,,,005,mav,60.0070961761,prodShadow,2015_Aug_02_1422,midd,
target,giki,stim/giki.wav,2,28,128,23,,,space,1.03426980972,,,005,mav,60.0070961761,prodShadow,2015_Aug_02_1422,midd,
target,buku,stim/buku.wav,2,29,129,8,,,space,1.28403806686,,,005,mav,60.0070961761,prodShadow,2015_Aug_02_1422,midd,
target,goko,stim/goko.wav,2,30,130,24,,,space,1.25099611282,,,005,mav,60.0070961761,prodShadow,2015_Aug_02_1422,midd,
target,peke,stim/peke.wav,2,31,131,37,,,space,1.00067782402,,,005,mav,60.0070961761,prodShadow,2015_Aug_02_1422,midd,
pname,gato,stim/gato.wav,2,32,132,21,,,space,1.38428997993,,,005,mav,60.0070961761,prodShadow,2015_Aug_02_1422,midd,
target,kaka,stim/kaka.wav,2,33,133,28,,,space,1.15066719055,,,005,mav,60.0070961761,prodShadow,2015_Aug_02_1422,midd,
pname,topo,stim/topo.wav,2,34,134,46,,,space,1.15083503723,,,005,mav,60.0070961761,prodShadow,2015_Aug_02_1422,midd,
pname,caca,stim/caca.wav,2,35,135,9,,,space,1.18432807922,,,005,mav,60.0070961761,prodShadow,2015_Aug_02_1422,midd,
target,baka,stim/baka.wav,2,36,136,2,,,space,1.33463692665,,,005,mav,60.0070961761,prodShadow,2015_Aug_02_1422,midd,
distractor,apa,stim/apa.wav,2,37,137,1,,,space,1.23404502869,,,005,mav,60.0070961761,prodShadow,2015_Aug_02_1422,midd,
target,boko,stim/boko.wav,2,38,138,6,,,space,1.317882061,,,005,mav,60.0070961761,prodShadow,2015_Aug_02_1422,midd,
pname,coco,stim/coco.wav,2,39,139,10,,,space,1.2171959877,,,005,mav,60.0070961761,prodShadow,2015_Aug_02_1422,midd,
target,diki,stim/diki.wav,2,40,140,14,,,space,1.01698589325,,,005,mav,60.0070961761,prodShadow,2015_Aug_02_1422,midd,
target,toko,stim/toko.wav,2,41,141,47,,,space,1.20065999031,,,005,mav,60.0070961761,prodShadow,2015_Aug_02_1422,midd,
target,biki,stim/biki.wav,2,42,142,5,,,space,1.25082302094,,,005,mav,60.0070961761,prodShadow,2015_Aug_02_1422,midd,
target,kiki,stim/kiki.wav,2,43,143,30,,,space,1.05085897446,,,005,mav,60.0070961761,prodShadow,2015_Aug_02_1422,midd,
target,daka,stim/daka.wav,2,44,144,12,,,space,1.25061893463,,,005,mav,60.0070961761,prodShadow,2015_Aug_02_1422,midd,
distractor,oka,stim/oka.wav,2,45,145,34,,,space,1.26711201668,,,005,mav,60.0070961761,prodShadow,2015_Aug_02_1422,midd,
target,duku,stim/duku.wav,2,46,146,17,,,space,1.23417210579,,,005,mav,60.0070961761,prodShadow,2015_Aug_02_1422,midd,
target,deke,stim/deke.wav,2,47,147,13,,,space,1.5005710125,,,005,mav,60.0070961761,prodShadow,2015_Aug_02_1422,midd,
target,paka,stim/paka.wav,2,48,148,35,,,space,1.05085611343,,,005,mav,60.0070961761,prodShadow,2015_Aug_02_1422,midd,
target,koko,stim/koko.wav,2,49,149,31,,,space,1.20076203346,,,005,mav,60.0070961761,prodShadow,2015_Aug_02_1422,midd,
,,,,,,,,,,,space,26.4368679523,005,mav,60.0070961761,prodShadow,2015_Aug_02_1422,midd,
