status,text,stim,trials.thisRepN,trials.thisTrialN,trials.thisN,trials.thisIndex,key_resp_3.keys,key_resp_3.rt,key_resp_2.keys,key_resp_2.rt,key_resp_4.keys,key_resp_4.rt,session,participant,frameRate,expName,date,condition,
,,,,,,,space,1.1852440834,,,,,002,jal,59.8318723565,prodShadow,2015_Jul_12_1324,midd,
target,taka,stim/taka.wav,0,0,0,43,,,space,1.60038208961,,,002,jal,59.8318723565,prodShadow,2015_Jul_12_1324,midd,
pname,palo,stim/palo.wav,0,1,1,36,,,space,1.36766290665,,,002,jal,59.8318723565,prodShadow,2015_Jul_12_1324,midd,
pname,dodo,stim/dodo.wav,0,2,2,15,,,space,1.01754307747,,,002,jal,59.8318723565,prodShadow,2015_Jul_12_1324,midd,
target,kaka,stim/kaka.wav,0,3,3,28,,,space,1.26659798622,,,002,jal,59.8318723565,prodShadow,2015_Jul_12_1324,midd,
pname,polo,stim/polo.wav,0,4,4,40,,,space,1.15001583099,,,002,jal,59.8318723565,prodShadow,2015_Jul_12_1324,midd,
target,baka,stim/baka.wav,0,5,5,2,,,space,1.28471708298,,,002,jal,59.8318723565,prodShadow,2015_Jul_12_1324,midd,
target,piki,stim/piki.wav,0,6,6,38,,,space,1.23362612724,,,002,jal,59.8318723565,prodShadow,2015_Jul_12_1324,midd,
distractor,apa,stim/apa.wav,0,7,7,1,,,space,1.36725282669,,,002,jal,59.8318723565,prodShadow,2015_Jul_12_1324,midd,
pname,gota,stim/gota.wav,0,8,8,25,,,space,1.48338699341,,,002,jal,59.8318723565,prodShadow,2015_Jul_12_1324,midd,
target,duku,stim/duku.wav,0,9,9,17,,,space,1.28420901299,,,002,jal,59.8318723565,prodShadow,2015_Jul_12_1324,midd,
pname,dado,stim/dado.wav,0,10,10,11,,,space,5.11759996414,,,002,jal,59.8318723565,prodShadow,2015_Jul_12_1324,midd,
target,geke,stim/geke.wav,0,11,11,22,,,space,1.50079298019,,,002,jal,59.8318723565,prodShadow,2015_Jul_12_1324,midd,
target,tuku,stim/tuku.wav,0,12,12,48,,,space,1.48402690887,,,002,jal,59.8318723565,prodShadow,2015_Jul_12_1324,midd,
distractor,oba,stim/oba.wav,0,13,13,33,,,space,1.88437390327,,,002,jal,59.8318723565,prodShadow,2015_Jul_12_1324,midd,
target,teke,stim/teke.wav,0,14,14,44,,,space,1.38424110413,,,002,jal,59.8318723565,prodShadow,2015_Jul_12_1324,midd,
target,deke,stim/deke.wav,0,15,15,13,,,space,1.63426709175,,,002,jal,59.8318723565,prodShadow,2015_Jul_12_1324,midd,
distractor,epa,stim/epa.wav,0,16,16,19,,,space,1.13401508331,,,002,jal,59.8318723565,prodShadow,2015_Jul_12_1324,midd,
target,poko,stim/poko.wav,0,17,17,39,,,space,0.917548179626,,,002,jal,59.8318723565,prodShadow,2015_Jul_12_1324,midd,
distractor,ita,stim/ita.wav,0,18,18,27,,,space,0.901120185852,,,002,jal,59.8318723565,prodShadow,2015_Jul_12_1324,midd,
target,toko,stim/toko.wav,0,19,19,47,,,space,1.28369116783,,,002,jal,59.8318723565,prodShadow,2015_Jul_12_1324,midd,
distractor,ada,stim/ada.wav,0,20,20,0,,,space,1.36777091026,,,002,jal,59.8318723565,prodShadow,2015_Jul_12_1324,midd,
pname,topo,stim/topo.wav,0,21,21,46,,,space,0.884236097336,,,002,jal,59.8318723565,prodShadow,2015_Jul_12_1324,midd,
distractor,eda,stim/eda.wav,0,22,22,18,,,space,1.1006269455,,,002,jal,59.8318723565,prodShadow,2015_Jul_12_1324,midd,
target,keke,stim/keke.wav,0,23,23,29,,,space,0.984195947647,,,002,jal,59.8318723565,prodShadow,2015_Jul_12_1324,midd,
pname,taco,stim/taco.wav,0,24,24,42,,,space,1.03460121155,,,002,jal,59.8318723565,prodShadow,2015_Jul_12_1324,midd,
pname,caca,stim/caca.wav,0,25,25,9,,,space,0.917810916901,,,002,jal,59.8318723565,prodShadow,2015_Jul_12_1324,midd,
target,goko,stim/goko.wav,0,26,26,24,,,space,1.16732001305,,,002,jal,59.8318723565,prodShadow,2015_Jul_12_1324,midd,
target,gaka,stim/gaka.wav,0,27,27,20,,,space,1.16732096672,,,002,jal,59.8318723565,prodShadow,2015_Jul_12_1324,midd,
target,biki,stim/biki.wav,0,28,28,5,,,space,1.33417701721,,,002,jal,59.8318723565,prodShadow,2015_Jul_12_1324,midd,
target,kiki,stim/kiki.wav,0,29,29,30,,,space,1.03412294388,,,002,jal,59.8318723565,prodShadow,2015_Jul_12_1324,midd,
target,beke,stim/beke.wav,0,30,30,4,,,space,1.35122704506,,,002,jal,59.8318723565,prodShadow,2015_Jul_12_1324,midd,
target,diki,stim/diki.wav,0,31,31,14,,,space,1.31759285927,,,002,jal,59.8318723565,prodShadow,2015_Jul_12_1324,midd,
target,boko,stim/boko.wav,0,32,32,6,,,space,1.18415999413,,,002,jal,59.8318723565,prodShadow,2015_Jul_12_1324,midd,
target,buku,stim/buku.wav,0,33,33,8,,,space,1.41730499268,,,002,jal,59.8318723565,prodShadow,2015_Jul_12_1324,midd,
target,puku,stim/puku.wav,0,34,34,41,,,space,1.30118703842,,,002,jal,59.8318723565,prodShadow,2015_Jul_12_1324,midd,
pname,coco,stim/coco.wav,0,35,35,10,,,space,1.25112509727,,,002,jal,59.8318723565,prodShadow,2015_Jul_12_1324,midd,
pname,bala,stim/bala.wav,0,36,36,3,,,space,1.1004550457,,,002,jal,59.8318723565,prodShadow,2015_Jul_12_1324,midd,
pname,bola,stim/bola.wav,0,37,37,7,,,space,1.10056185722,,,002,jal,59.8318723565,prodShadow,2015_Jul_12_1324,midd,
distractor,oka,stim/oka.wav,0,38,38,34,,,space,1.20071196556,,,002,jal,59.8318723565,prodShadow,2015_Jul_12_1324,midd,
target,doko,stim/doko.wav,0,39,39,16,,,space,1.31749200821,,,002,jal,59.8318723565,prodShadow,2015_Jul_12_1324,midd,
target,kuku,stim/kuku.wav,0,40,40,32,,,space,1.267359972,,,002,jal,59.8318723565,prodShadow,2015_Jul_12_1324,midd,
target,koko,stim/koko.wav,0,41,41,31,,,space,1.15081214905,,,002,jal,59.8318723565,prodShadow,2015_Jul_12_1324,midd,
distractor,uta,stim/uta.wav,0,42,42,49,,,space,1.21691584587,,,002,jal,59.8318723565,prodShadow,2015_Jul_12_1324,midd,
target,giki,stim/giki.wav,0,43,43,23,,,space,1.06710100174,,,002,jal,59.8318723565,prodShadow,2015_Jul_12_1324,midd,
target,paka,stim/paka.wav,0,44,44,35,,,space,0.984335899353,,,002,jal,59.8318723565,prodShadow,2015_Jul_12_1324,midd,
target,peke,stim/peke.wav,0,45,45,37,,,space,1.01763510704,,,002,jal,59.8318723565,prodShadow,2015_Jul_12_1324,midd,
pname,gato,stim/gato.wav,0,46,46,21,,,space,1.50089693069,,,002,jal,59.8318723565,prodShadow,2015_Jul_12_1324,midd,
target,guku,stim/guku.wav,0,47,47,26,,,space,1.1510989666,,,002,jal,59.8318723565,prodShadow,2015_Jul_12_1324,midd,
target,tiki,stim/tiki.wav,0,48,48,45,,,space,0.917936086655,,,002,jal,59.8318723565,prodShadow,2015_Jul_12_1324,midd,
target,daka,stim/daka.wav,0,49,49,12,,,space,0.950675964355,,,002,jal,59.8318723565,prodShadow,2015_Jul_12_1324,midd,
pname,bala,stim/bala.wav,1,0,50,3,,,space,1.06727695465,,,002,jal,59.8318723565,prodShadow,2015_Jul_12_1324,midd,
target,piki,stim/piki.wav,1,1,51,38,,,space,1.31751704216,,,002,jal,59.8318723565,prodShadow,2015_Jul_12_1324,midd,
target,geke,stim/geke.wav,1,2,52,22,,,space,1.21752381325,,,002,jal,59.8318723565,prodShadow,2015_Jul_12_1324,midd,
distractor,eda,stim/eda.wav,1,3,53,18,,,space,0.784415960312,,,002,jal,59.8318723565,prodShadow,2015_Jul_12_1324,midd,
distractor,uta,stim/uta.wav,1,4,54,49,,,space,0.767673015594,,,002,jal,59.8318723565,prodShadow,2015_Jul_12_1324,midd,
target,tiki,stim/tiki.wav,1,5,55,45,,,space,1.13408112526,,,002,jal,59.8318723565,prodShadow,2015_Jul_12_1324,midd,
target,daka,stim/daka.wav,1,6,56,12,,,space,1.18434000015,,,002,jal,59.8318723565,prodShadow,2015_Jul_12_1324,midd,
pname,taco,stim/taco.wav,1,7,57,42,,,space,1.43383407593,,,002,jal,59.8318723565,prodShadow,2015_Jul_12_1324,midd,
target,teke,stim/teke.wav,1,8,58,44,,,space,0.933820009232,,,002,jal,59.8318723565,prodShadow,2015_Jul_12_1324,midd,
target,puku,stim/puku.wav,1,9,59,41,,,space,1.06726193428,,,002,jal,59.8318723565,prodShadow,2015_Jul_12_1324,midd,
target,boko,stim/boko.wav,1,10,60,6,,,space,0.950699090958,,,002,jal,59.8318723565,prodShadow,2015_Jul_12_1324,midd,
target,duku,stim/duku.wav,1,11,61,17,,,space,1.41756916046,,,002,jal,59.8318723565,prodShadow,2015_Jul_12_1324,midd,
pname,coco,stim/coco.wav,1,12,62,10,,,space,1.11754989624,,,002,jal,59.8318723565,prodShadow,2015_Jul_12_1324,midd,
target,toko,stim/toko.wav,1,13,63,47,,,space,1.23422718048,,,002,jal,59.8318723565,prodShadow,2015_Jul_12_1324,midd,
target,kuku,stim/kuku.wav,1,14,64,32,,,space,1.03432011604,,,002,jal,59.8318723565,prodShadow,2015_Jul_12_1324,midd,
distractor,apa,stim/apa.wav,1,15,65,1,,,space,1.11713409424,,,002,jal,59.8318723565,prodShadow,2015_Jul_12_1324,midd,
target,taka,stim/taka.wav,1,16,66,43,,,space,0.767653226852,,,002,jal,59.8318723565,prodShadow,2015_Jul_12_1324,midd,
target,goko,stim/goko.wav,1,17,67,24,,,space,0.617886066437,,,002,jal,59.8318723565,prodShadow,2015_Jul_12_1324,midd,
target,beke,stim/beke.wav,1,18,68,4,,,space,1.40078806877,,,002,jal,59.8318723565,prodShadow,2015_Jul_12_1324,midd,
pname,palo,stim/palo.wav,1,19,69,36,,,space,1.0340051651,,,002,jal,59.8318723565,prodShadow,2015_Jul_12_1324,midd,
target,poko,stim/poko.wav,1,20,70,39,,,space,0.917419195175,,,002,jal,59.8318723565,prodShadow,2015_Jul_12_1324,midd,
pname,caca,stim/caca.wav,1,21,71,9,,,space,1.05061912537,,,002,jal,59.8318723565,prodShadow,2015_Jul_12_1324,midd,
pname,dodo,stim/dodo.wav,1,22,72,15,,,space,1.15101504326,,,002,jal,59.8318723565,prodShadow,2015_Jul_12_1324,midd,
target,paka,stim/paka.wav,1,23,73,35,,,space,0.984261035919,,,002,jal,59.8318723565,prodShadow,2015_Jul_12_1324,midd,
pname,gato,stim/gato.wav,1,24,74,21,,,space,1.25089502335,,,002,jal,59.8318723565,prodShadow,2015_Jul_12_1324,midd,
target,keke,stim/keke.wav,1,25,75,29,,,space,1.2172191143,,,002,jal,59.8318723565,prodShadow,2015_Jul_12_1324,midd,
target,baka,stim/baka.wav,1,26,76,2,,,space,1.23413491249,,,002,jal,59.8318723565,prodShadow,2015_Jul_12_1324,midd,
target,gaka,stim/gaka.wav,1,27,77,20,,,space,1.23412108421,,,002,jal,59.8318723565,prodShadow,2015_Jul_12_1324,midd,
target,peke,stim/peke.wav,1,28,78,37,,,space,1.0675239563,,,002,jal,59.8318723565,prodShadow,2015_Jul_12_1324,midd,
target,giki,stim/giki.wav,1,29,79,23,,,space,1.30099010468,,,002,jal,59.8318723565,prodShadow,2015_Jul_12_1324,midd,
target,kiki,stim/kiki.wav,1,30,80,30,,,space,1.03389286995,,,002,jal,59.8318723565,prodShadow,2015_Jul_12_1324,midd,
target,biki,stim/biki.wav,1,31,81,5,,,space,1.06760811806,,,002,jal,59.8318723565,prodShadow,2015_Jul_12_1324,midd,
target,tuku,stim/tuku.wav,1,32,82,48,,,space,0.900738954544,,,002,jal,59.8318723565,prodShadow,2015_Jul_12_1324,midd,
pname,gota,stim/gota.wav,1,33,83,25,,,space,1.18371200562,,,002,jal,59.8318723565,prodShadow,2015_Jul_12_1324,midd,
distractor,oba,stim/oba.wav,1,34,84,33,,,space,1.06747889519,,,002,jal,59.8318723565,prodShadow,2015_Jul_12_1324,midd,
distractor,epa,stim/epa.wav,1,35,85,19,,,space,0.933736085892,,,002,jal,59.8318723565,prodShadow,2015_Jul_12_1324,midd,
target,diki,stim/diki.wav,1,36,86,14,,,space,0.884031057358,,,002,jal,59.8318723565,prodShadow,2015_Jul_12_1324,midd,
distractor,ita,stim/ita.wav,1,37,87,27,,,space,1.31764578819,,,002,jal,59.8318723565,prodShadow,2015_Jul_12_1324,midd,
target,koko,stim/koko.wav,1,38,88,31,,,space,0.93399310112,,,002,jal,59.8318723565,prodShadow,2015_Jul_12_1324,midd,
target,deke,stim/deke.wav,1,39,89,13,,,space,1.30011296272,,,002,jal,59.8318723565,prodShadow,2015_Jul_12_1324,midd,
pname,dado,stim/dado.wav,1,40,90,11,,,space,1.01756000519,,,002,jal,59.8318723565,prodShadow,2015_Jul_12_1324,midd,
target,doko,stim/doko.wav,1,41,91,16,,,space,1.45118308067,,,002,jal,59.8318723565,prodShadow,2015_Jul_12_1324,midd,
pname,polo,stim/polo.wav,1,42,92,40,,,space,1.01771783829,,,002,jal,59.8318723565,prodShadow,2015_Jul_12_1324,midd,
pname,topo,stim/topo.wav,1,43,93,46,,,space,0.967373847961,,,002,jal,59.8318723565,prodShadow,2015_Jul_12_1324,midd,
target,buku,stim/buku.wav,1,44,94,8,,,space,1.10062599182,,,002,jal,59.8318723565,prodShadow,2015_Jul_12_1324,midd,
distractor,ada,stim/ada.wav,1,45,95,0,,,space,0.884315013885,,,002,jal,59.8318723565,prodShadow,2015_Jul_12_1324,midd,
pname,bola,stim/bola.wav,1,46,96,7,,,space,0.984297990799,,,002,jal,59.8318723565,prodShadow,2015_Jul_12_1324,midd,
target,guku,stim/guku.wav,1,47,97,26,,,space,1.15082502365,,,002,jal,59.8318723565,prodShadow,2015_Jul_12_1324,midd,
target,kaka,stim/kaka.wav,1,48,98,28,,,space,0.950798034668,,,002,jal,59.8318723565,prodShadow,2015_Jul_12_1324,midd,
distractor,oka,stim/oka.wav,1,49,99,34,,,space,1.43419694901,,,002,jal,59.8318723565,prodShadow,2015_Jul_12_1324,midd,
pname,coco,stim/coco.wav,2,0,100,10,,,space,1.35062098503,,,002,jal,59.8318723565,prodShadow,2015_Jul_12_1324,midd,
pname,palo,stim/palo.wav,2,1,101,36,,,space,1.16746282578,,,002,jal,59.8318723565,prodShadow,2015_Jul_12_1324,midd,
target,kiki,stim/kiki.wav,2,2,102,30,,,space,1.26777410507,,,002,jal,59.8318723565,prodShadow,2015_Jul_12_1324,midd,
pname,bola,stim/bola.wav,2,3,103,7,,,space,1.11752676964,,,002,jal,59.8318723565,prodShadow,2015_Jul_12_1324,midd,
target,deke,stim/deke.wav,2,4,104,13,,,space,1.63421392441,,,002,jal,59.8318723565,prodShadow,2015_Jul_12_1324,midd,
pname,dodo,stim/dodo.wav,2,5,105,15,,,space,1.15090107918,,,002,jal,59.8318723565,prodShadow,2015_Jul_12_1324,midd,
distractor,oka,stim/oka.wav,2,6,106,34,,,space,1.23407316208,,,002,jal,59.8318723565,prodShadow,2015_Jul_12_1324,midd,
distractor,uta,stim/uta.wav,2,7,107,49,,,space,1.26691889763,,,002,jal,59.8318723565,prodShadow,2015_Jul_12_1324,midd,
pname,polo,stim/polo.wav,2,8,108,40,,,space,0.900500059128,,,002,jal,59.8318723565,prodShadow,2015_Jul_12_1324,midd,
distractor,apa,stim/apa.wav,2,9,109,1,,,space,0.984217882156,,,002,jal,59.8318723565,prodShadow,2015_Jul_12_1324,midd,
target,gaka,stim/gaka.wav,2,10,110,20,,,space,1.00066280365,,,002,jal,59.8318723565,prodShadow,2015_Jul_12_1324,midd,
pname,caca,stim/caca.wav,2,11,111,9,,,space,1.13437604904,,,002,jal,59.8318723565,prodShadow,2015_Jul_12_1324,midd,
target,geke,stim/geke.wav,2,12,112,22,,,space,1.43335294724,,,002,jal,59.8318723565,prodShadow,2015_Jul_12_1324,midd,
target,taka,stim/taka.wav,2,13,113,43,,,space,1.06712913513,,,002,jal,59.8318723565,prodShadow,2015_Jul_12_1324,midd,
target,doko,stim/doko.wav,2,14,114,16,,,space,0.65113401413,,,002,jal,59.8318723565,prodShadow,2015_Jul_12_1324,midd,
target,diki,stim/diki.wav,2,15,115,14,,,space,1.03367900848,,,002,jal,59.8318723565,prodShadow,2015_Jul_12_1324,midd,
pname,topo,stim/topo.wav,2,16,116,46,,,space,0.96701002121,,,002,jal,59.8318723565,prodShadow,2015_Jul_12_1324,midd,
pname,gato,stim/gato.wav,2,17,117,21,,,space,1.35086607933,,,002,jal,59.8318723565,prodShadow,2015_Jul_12_1324,midd,
target,giki,stim/giki.wav,2,18,118,23,,,space,0.933310985565,,,002,jal,59.8318723565,prodShadow,2015_Jul_12_1324,midd,
target,beke,stim/beke.wav,2,19,119,4,,,space,1.46757102013,,,002,jal,59.8318723565,prodShadow,2015_Jul_12_1324,midd,
target,baka,stim/baka.wav,2,20,120,2,,,space,0.600407123566,,,002,jal,59.8318723565,prodShadow,2015_Jul_12_1324,midd,
target,puku,stim/puku.wav,2,21,121,41,,,space,1.34976291656,,,002,jal,59.8318723565,prodShadow,2015_Jul_12_1324,midd,
distractor,ita,stim/ita.wav,2,22,122,27,,,space,1.23383593559,,,002,jal,59.8318723565,prodShadow,2015_Jul_12_1324,midd,
target,tiki,stim/tiki.wav,2,23,123,45,,,space,1.36710309982,,,002,jal,59.8318723565,prodShadow,2015_Jul_12_1324,midd,
pname,dado,stim/dado.wav,2,24,124,11,,,space,1.18414592743,,,002,jal,59.8318723565,prodShadow,2015_Jul_12_1324,midd,
target,kaka,stim/kaka.wav,2,25,125,28,,,space,0.834761142731,,,002,jal,59.8318723565,prodShadow,2015_Jul_12_1324,midd,
target,buku,stim/buku.wav,2,26,126,8,,,space,1.16783690453,,,002,jal,59.8318723565,prodShadow,2015_Jul_12_1324,midd,
target,piki,stim/piki.wav,2,27,127,38,,,space,0.851119995117,,,002,jal,59.8318723565,prodShadow,2015_Jul_12_1324,midd,
target,poko,stim/poko.wav,2,28,128,39,,,space,0.917357206345,,,002,jal,59.8318723565,prodShadow,2015_Jul_12_1324,midd,
target,biki,stim/biki.wav,2,29,129,5,,,space,1.38432598114,,,002,jal,59.8318723565,prodShadow,2015_Jul_12_1324,midd,
target,duku,stim/duku.wav,2,30,130,17,,,space,1.23431992531,,,002,jal,59.8318723565,prodShadow,2015_Jul_12_1324,midd,
target,kuku,stim/kuku.wav,2,31,131,32,,,space,0.199981927872,,,002,jal,59.8318723565,prodShadow,2015_Jul_12_1324,midd,
distractor,epa,stim/epa.wav,2,32,132,19,,,space,1.06762695312,,,002,jal,59.8318723565,prodShadow,2015_Jul_12_1324,midd,
target,paka,stim/paka.wav,2,33,133,35,,,space,1.03378891945,,,002,jal,59.8318723565,prodShadow,2015_Jul_12_1324,midd,
distractor,oba,stim/oba.wav,2,34,134,33,,,space,0.917375087738,,,002,jal,59.8318723565,prodShadow,2015_Jul_12_1324,midd,
pname,bala,stim/bala.wav,2,35,135,3,,,space,1.36702489853,,,002,jal,59.8318723565,prodShadow,2015_Jul_12_1324,midd,
target,keke,stim/keke.wav,2,36,136,29,,,space,1.10101604462,,,002,jal,59.8318723565,prodShadow,2015_Jul_12_1324,midd,
pname,taco,stim/taco.wav,2,37,137,42,,,space,1.18379998207,,,002,jal,59.8318723565,prodShadow,2015_Jul_12_1324,midd,
target,guku,stim/guku.wav,2,38,138,26,,,space,1.21861290932,,,002,jal,59.8318723565,prodShadow,2015_Jul_12_1324,midd,
pname,gota,stim/gota.wav,2,39,139,25,,,space,1.10127210617,,,002,jal,59.8318723565,prodShadow,2015_Jul_12_1324,midd,
target,toko,stim/toko.wav,2,40,140,47,,,space,1.08430409431,,,002,jal,59.8318723565,prodShadow,2015_Jul_12_1324,midd,
distractor,ada,stim/ada.wav,2,41,141,0,,,space,1.16795110703,,,002,jal,59.8318723565,prodShadow,2015_Jul_12_1324,midd,
distractor,eda,stim/eda.wav,2,42,142,18,,,space,0.851322174072,,,002,jal,59.8318723565,prodShadow,2015_Jul_12_1324,midd,
target,teke,stim/teke.wav,2,43,143,44,,,space,1.18440103531,,,002,jal,59.8318723565,prodShadow,2015_Jul_12_1324,midd,
target,daka,stim/daka.wav,2,44,144,12,,,space,0.383121967316,,,002,jal,59.8318723565,prodShadow,2015_Jul_12_1324,midd,
target,goko,stim/goko.wav,2,45,145,24,,,space,1.3336250782,,,002,jal,59.8318723565,prodShadow,2015_Jul_12_1324,midd,
target,koko,stim/koko.wav,2,46,146,31,,,space,1.11791181564,,,002,jal,59.8318723565,prodShadow,2015_Jul_12_1324,midd,
target,tuku,stim/tuku.wav,2,47,147,48,,,space,1.18338394165,,,002,jal,59.8318723565,prodShadow,2015_Jul_12_1324,midd,
target,peke,stim/peke.wav,2,48,148,37,,,space,0.917011976242,,,002,jal,59.8318723565,prodShadow,2015_Jul_12_1324,midd,
target,boko,stim/boko.wav,2,49,149,6,,,space,1.46813011169,,,002,jal,59.8318723565,prodShadow,2015_Jul_12_1324,midd,
,,,,,,,,,,,space,11.0678110123,002,jal,59.8318723565,prodShadow,2015_Jul_12_1324,midd,
